word,color,stim_condition,corr_resp,thisN,thisTrialN,thisRepN,key_resp.keys,key_resp.corr,key_resp.rt,key_resp.duration,trials.thisRepN,trials.thisTrialN,trials.thisN,trials.thisIndex,thisRow.t,notes,instr.started,text_2.started,text_2.stopped,instr.stopped,trial.started,fixation.started,text.started,key_resp.started,fixation.stopped,trial.stopped,trials.key_resp.keys,trials.key_resp.corr,trials.key_resp.rt,trials.key_resp.duration,thanks.started,text_3.started,text_3.stopped,thanks.stopped,participant,session,date,expName,psychopyVersion,frameRate,expStart
,,,,,,,,,,,,,,,,,0.0028357,0.0058599,1.0098814,0.9894142,,,,,,,,,,,,,,,32818,1,2025-08-26_16h39.38.991,strooptaskexp,2024.2.4,144.0523658,2025-08-26 16h39.47.218622 +0530
RED,red,C,r,0,0,0,r,1,1.000241,None,0,0,0,0,1.0098814,,,,,,1.0062978,1.0098814,1.4884155,1.4884155,1.5022381,2.4938862,r,1,1.000241,None,,,,,32818,1,2025-08-26_16h39.38.991,strooptaskexp,2024.2.4,144.0523658,2025-08-26 16h39.47.218622 +0530
BLUE,blue,C,b,1,1,0,b,1,0.8613512,None,0,1,1,2,2.5003423,,,,,,2.4972841,2.5003423,2.9881582,2.9881582,2.9951231,3.8515417,b,1,0.8613512,None,,,,,32818,1,2025-08-26_16h39.38.991,strooptaskexp,2024.2.4,144.0523658,2025-08-26 16h39.47.218622 +0530
RED,blue,I,b,2,2,0,b,1,1.0169364,None,0,2,2,1,3.8582923,,,,,,3.8546718,3.8582923,4.3421385,4.3421385,4.3491274,5.3639576,b,1,1.0169364,None,,,,,32818,1,2025-08-26_16h39.38.991,strooptaskexp,2024.2.4,144.0523658,2025-08-26 16h39.47.218622 +0530
BLUE,red,I,r,3,3,0,r,1,1.012661,None,0,3,3,3,5.3697,,,,,,5.3665223,5.3697,5.8558808,5.8558808,5.8626098,6.8715682,r,1,1.012661,None,,,,,32818,1,2025-08-26_16h39.38.991,strooptaskexp,2024.2.4,144.0523658,2025-08-26 16h39.47.218622 +0530
BLUE,blue,C,b,4,0,1,b,1,0.675442,None,1,0,4,2,6.8764051,,,,,,6.8721328,6.8764051,7.3625444,7.3625444,7.3693704,8.0444816,b,1,0.675442,None,,,,,32818,1,2025-08-26_16h39.38.991,strooptaskexp,2024.2.4,144.0523658,2025-08-26 16h39.47.218622 +0530
RED,red,C,r,5,1,1,r,1,0.8904209,None,1,1,5,0,8.0504787,,,,,,8.0471043,8.0504787,8.5357836,8.5357836,8.5427671,9.4329208,r,1,0.8904209,None,,,,,32818,1,2025-08-26_16h39.38.991,strooptaskexp,2024.2.4,144.0523658,2025-08-26 16h39.47.218622 +0530
RED,blue,I,b,6,2,1,b,1,0.7143961,None,1,2,6,1,9.43852,,,,,,9.4334901,9.43852,9.9245383,9.9245383,9.9315063,10.6416759,b,1,0.7143961,None,,,,,32818,1,2025-08-26_16h39.38.991,strooptaskexp,2024.2.4,144.0523658,2025-08-26 16h39.47.218622 +0530
BLUE,red,I,r,7,3,1,r,1,0.8162104,None,1,3,7,3,10.6479679,,,,,,10.6444041,10.6479679,11.1327829,11.1327829,11.1396593,11.9535709,r,1,0.8162104,None,,,,,32818,1,2025-08-26_16h39.38.991,strooptaskexp,2024.2.4,144.0523658,2025-08-26 16h39.47.218622 +0530
BLUE,blue,C,b,8,0,2,b,1,1.0882269,None,2,0,8,2,11.9588385,,,,,,11.9542529,11.9588385,12.4449954,12.4449954,12.4519293,13.5358249,b,1,1.0882269,None,,,,,32818,1,2025-08-26_16h39.38.991,strooptaskexp,2024.2.4,144.0523658,2025-08-26 16h39.47.218622 +0530
RED,blue,I,b,9,1,2,r,0,1.0391131,None,2,1,9,1,13.5422352,,,,,,13.537206,13.5422352,14.0280289,14.0280289,14.0350876,15.0702855,r,0,1.0391131,None,,,,,32818,1,2025-08-26_16h39.38.991,strooptaskexp,2024.2.4,144.0523658,2025-08-26 16h39.47.218622 +0530
RED,red,C,r,10,2,2,r,1,1.1803956,None,2,2,10,0,15.0766179,,,,,,15.0708996,15.0766179,15.5625584,15.5625584,15.5695182,16.7444805,r,1,1.1803956,None,,,,,32818,1,2025-08-26_16h39.38.991,strooptaskexp,2024.2.4,144.0523658,2025-08-26 16h39.47.218622 +0530
BLUE,red,I,r,11,3,2,r,1,0.9487816,None,2,3,11,3,16.7501608,,,,,,16.7468415,16.7501608,17.2366392,17.2366392,17.2428639,18.1887227,r,1,0.9487816,None,,,,,32818,1,2025-08-26_16h39.38.991,strooptaskexp,2024.2.4,144.0523658,2025-08-26 16h39.47.218622 +0530
RED,blue,I,b,12,0,3,b,1,0.5103694,None,3,0,12,1,18.1947084,,,,,,18.1913984,18.1947084,18.680199,18.680199,18.6871084,19.1950337,b,1,0.5103694,None,,,,,32818,1,2025-08-26_16h39.38.991,strooptaskexp,2024.2.4,144.0523658,2025-08-26 16h39.47.218622 +0530
BLUE,blue,C,b,13,1,3,b,1,0.7407077,None,3,1,13,2,19.2011415,,,,,,19.1976691,19.2011415,19.6868534,19.6868534,19.6940353,20.4311317,b,1,0.7407077,None,,,,,32818,1,2025-08-26_16h39.38.991,strooptaskexp,2024.2.4,144.0523658,2025-08-26 16h39.47.218622 +0530
RED,red,C,r,14,2,3,r,1,0.8301989,None,3,2,14,0,20.4367341,,,,,,20.4335352,20.4367341,20.9228849,20.9228849,20.930074,21.7569791,r,1,0.8301989,None,,,,,32818,1,2025-08-26_16h39.38.991,strooptaskexp,2024.2.4,144.0523658,2025-08-26 16h39.47.218622 +0530
BLUE,red,I,r,15,3,3,r,1,0.7940983,None,3,3,15,3,21.763072,,,,,,21.7588015,21.763072,22.2490237,22.2490237,22.2562467,23.0489784,r,1,0.7940983,None,,,,,32818,1,2025-08-26_16h39.38.991,strooptaskexp,2024.2.4,144.0523658,2025-08-26 16h39.47.218622 +0530
RED,red,C,r,16,0,4,r,1,0.5624038,None,4,0,16,0,23.0548588,,,,,,23.0503441,23.0548588,23.5405411,23.5405411,23.547512,24.1051271,r,1,0.5624038,None,,,,,32818,1,2025-08-26_16h39.38.991,strooptaskexp,2024.2.4,144.0523658,2025-08-26 16h39.47.218622 +0530
RED,blue,I,b,17,1,4,b,1,0.6148288,None,4,1,17,1,24.1099653,,,,,,24.1056578,24.1099653,24.5958469,24.5958469,24.6029016,25.2154487,b,1,0.6148288,None,,,,,32818,1,2025-08-26_16h39.38.991,strooptaskexp,2024.2.4,144.0523658,2025-08-26 16h39.47.218622 +0530
BLUE,blue,C,b,18,2,4,b,1,0.6463427,None,4,2,18,2,25.2218196,,,,,,25.21831,25.2218196,25.7069617,25.7069617,25.7138864,26.3547448,b,1,0.6463427,None,,,,,32818,1,2025-08-26_16h39.38.991,strooptaskexp,2024.2.4,144.0523658,2025-08-26 16h39.47.218622 +0530
BLUE,red,I,r,19,3,4,r,1,1.0287502,None,4,3,19,3,26.3597391,,,,,,26.3552948,26.3597391,26.8457386,26.8457386,26.852724,27.8811427,r,1,1.0287502,None,,,,,32818,1,2025-08-26_16h39.38.991,strooptaskexp,2024.2.4,144.0523658,2025-08-26 16h39.47.218622 +0530
BLUE,red,I,r,20,0,5,r,1,0.8721667,None,5,0,20,3,27.8870451,,,,,,27.8816855,27.8870451,28.3732959,28.3732959,28.3803713,29.2496328,r,1,0.8721667,None,,,,,32818,1,2025-08-26_16h39.38.991,strooptaskexp,2024.2.4,144.0523658,2025-08-26 16h39.47.218622 +0530
RED,blue,I,b,21,1,5,b,1,1.0300632,None,5,1,21,1,29.2562306,,,,,,29.2527299,29.2562306,29.7410584,29.7410584,29.7480369,30.7772049,b,1,1.0300632,None,,,,,32818,1,2025-08-26_16h39.38.991,strooptaskexp,2024.2.4,144.0523658,2025-08-26 16h39.47.218622 +0530
RED,red,C,r,22,2,5,r,1,1.4692174,None,5,2,22,0,30.7827382,,,,,,30.77782,30.7827382,31.2683775,31.2683775,31.2754124,32.7422361,r,1,1.4692174,None,,,,,32818,1,2025-08-26_16h39.38.991,strooptaskexp,2024.2.4,144.0523658,2025-08-26 16h39.47.218622 +0530
BLUE,blue,C,b,23,3,5,b,1,0.6493259,None,5,3,23,2,32.748263,,,,,,32.7451191,32.748263,33.2337416,33.2337416,33.2406548,33.8877227,b,1,0.6493259,None,,,,,32818,1,2025-08-26_16h39.38.991,strooptaskexp,2024.2.4,144.0523658,2025-08-26 16h39.47.218622 +0530
RED,blue,I,b,24,0,6,b,1,1.0217886,None,6,0,24,1,33.8932333,,,,,,33.890136,33.8932333,34.3793624,34.3793624,34.3863239,35.4079333,b,1,1.0217886,None,,,,,32818,1,2025-08-26_16h39.38.991,strooptaskexp,2024.2.4,144.0523658,2025-08-26 16h39.47.218622 +0530
BLUE,red,I,r,25,1,6,r,1,0.8304131,None,6,1,25,3,35.4137691,,,,,,35.4108968,35.4137691,35.9000325,35.9000325,35.9067592,36.734306,r,1,0.8304131,None,,,,,32818,1,2025-08-26_16h39.38.991,strooptaskexp,2024.2.4,144.0523658,2025-08-26 16h39.47.218622 +0530
RED,red,C,r,26,2,6,r,1,0.9439466,None,6,2,26,0,36.7401917,,,,,,36.7369916,36.7401917,37.2258202,37.2258202,37.2330264,38.1721602,r,1,0.9439466,None,,,,,32818,1,2025-08-26_16h39.38.991,strooptaskexp,2024.2.4,144.0523658,2025-08-26 16h39.47.218622 +0530
BLUE,blue,C,b,27,3,6,b,1,0.5428403,None,6,3,27,2,38.1789125,,,,,,38.1753296,38.1789125,38.6635032,38.6635032,38.6704019,39.2135581,b,1,0.5428403,None,,,,,32818,1,2025-08-26_16h39.38.991,strooptaskexp,2024.2.4,144.0523658,2025-08-26 16h39.47.218622 +0530
RED,blue,I,b,28,0,7,r,0,0.8839391,None,7,0,28,1,39.2194962,,,,,,39.2161946,39.2194962,39.7049063,39.7049063,39.7118446,40.5949254,r,0,0.8839391,None,,,,,32818,1,2025-08-26_16h39.38.991,strooptaskexp,2024.2.4,144.0523658,2025-08-26 16h39.47.218622 +0530
BLUE,red,I,r,29,1,7,r,1,1.7601634,None,7,1,29,3,40.6008794,,,,,,40.5975916,40.6008794,41.0867865,41.0867865,41.0936954,42.8514702,r,1,1.7601634,None,,,,,32818,1,2025-08-26_16h39.38.991,strooptaskexp,2024.2.4,144.0523658,2025-08-26 16h39.47.218622 +0530
BLUE,blue,C,b,30,2,7,b,1,1.4228444,None,7,2,30,2,42.8573146,,,,,,42.8519904,42.8573146,43.3433596,43.3433596,43.3502991,44.7687456,b,1,1.4228444,None,,,,,32818,1,2025-08-26_16h39.38.991,strooptaskexp,2024.2.4,144.0523658,2025-08-26 16h39.47.218622 +0530
RED,red,C,r,31,3,7,r,1,0.7217036,None,7,3,31,0,44.7752802,,,,,,44.7714697,44.7752802,45.2598253,45.2598253,45.266377,45.9837802,r,1,0.7217036,None,,,,,32818,1,2025-08-26_16h39.38.991,strooptaskexp,2024.2.4,144.0523658,2025-08-26 16h39.47.218622 +0530
RED,red,C,r,32,0,8,r,1,0.6278656,None,8,0,32,0,45.9887071,,,,,,45.9844125,45.9887071,46.4748431,46.4748431,46.4816599,47.1079367,r,1,0.6278656,None,,,,,32818,1,2025-08-26_16h39.38.991,strooptaskexp,2024.2.4,144.0523658,2025-08-26 16h39.47.218622 +0530
BLUE,blue,C,b,33,1,8,b,1,0.663788,None,8,1,33,2,47.1147091,,,,,,47.1109618,47.1147091,47.5996346,47.5996346,47.6064946,48.2673266,b,1,0.663788,None,,,,,32818,1,2025-08-26_16h39.38.991,strooptaskexp,2024.2.4,144.0523658,2025-08-26 16h39.47.218622 +0530
RED,blue,I,b,34,2,8,b,1,1.095103,None,8,2,34,1,48.2732345,,,,,,48.2696897,48.2732345,48.7591444,48.7591444,48.7662309,49.8577286,b,1,1.095103,None,,,,,32818,1,2025-08-26_16h39.38.991,strooptaskexp,2024.2.4,144.0523658,2025-08-26 16h39.47.218622 +0530
BLUE,red,I,r,35,3,8,r,1,0.9941532,None,8,3,35,3,49.8636807,,,,,,49.8604124,49.8636807,50.3491545,50.3491545,50.3561152,51.3501647,r,1,0.9941532,None,,,,,32818,1,2025-08-26_16h39.38.991,strooptaskexp,2024.2.4,144.0523658,2025-08-26 16h39.47.218622 +0530
RED,red,C,r,36,0,9,r,1,0.5029447,None,9,0,36,0,51.3559102,,,,,,51.3527692,51.3559102,51.842067,51.842067,51.8490258,52.3504796,r,1,0.5029447,None,,,,,32818,1,2025-08-26_16h39.38.991,strooptaskexp,2024.2.4,144.0523658,2025-08-26 16h39.47.218622 +0530
RED,blue,I,b,37,1,9,b,1,0.4596808,None,9,1,37,1,52.3558432,,,,,,52.351108,52.3558432,52.8419989,52.8419989,52.8488125,53.308848,b,1,0.4596808,None,,,,,32818,1,2025-08-26_16h39.38.991,strooptaskexp,2024.2.4,144.0523658,2025-08-26 16h39.47.218622 +0530
BLUE,blue,C,b,38,2,9,b,1,0.561474,None,9,2,38,2,53.3146021,,,,,,53.3115794,53.3146021,53.8001095,53.8001095,53.8070221,54.3644835,b,1,0.561474,None,,,,,32818,1,2025-08-26_16h39.38.991,strooptaskexp,2024.2.4,144.0523658,2025-08-26 16h39.47.218622 +0530
BLUE,red,I,r,39,3,9,r,1,0.7118996,None,9,3,39,3,54.3691943,,,,,,54.3651157,54.3691943,54.8555018,54.8555018,54.8624113,55.5721052,r,1,0.7118996,None,,,,,32818,1,2025-08-26_16h39.38.991,strooptaskexp,2024.2.4,144.0523658,2025-08-26 16h39.47.218622 +0530
,,,,,,,,,,,,,,,,,,,,,,,,,,,,,,,55.5722714,55.5773671,56.5705176,56.5645954,32818,1,2025-08-26_16h39.38.991,strooptaskexp,2024.2.4,144.0523658,2025-08-26 16h39.47.218622 +0530
