stairs.thisTrialN,stairs.stepSize,stairs.intensity,thisRow.t,notes,trial.started,fixation.started,grating.started,key_resp.started,fixation.stopped,grating.stopped,trial.stopped,corrAns,tilt,key_resp.corr,stairs.response,key_resp.rt,participant,session,date,expName,psychopyVersion,frameRate,expStart,
0,2,10.0,0.007671999977901578,,0.004158499883487821,0.007671999977901578,0.5724985999986529,0.5724985999986529,0.5769799000117928,0.8684622999280691,2.7098554000258446,right,10.0,1,1,2.106967599829659,369261,001,2025-08-28_10h22.21.260,staircase,2024.2.4,143.84949890641897,2025-08-28 10h22.29.503682 +0530,
1,2,8.0,2.7144317999482155,,2.7100913000758737,2.7144317999482155,3.2016189000569284,3.2016189000569284,3.2083771999459714,3.4928669999353588,3.9253326000180095,left,-8.0,1,1,0.7218470999505371,369261,001,2025-08-28_10h22.21.260,staircase,2024.2.4,143.84949890641897,2025-08-28 10h22.29.503682 +0530,
2,2,6.0,3.930400100070983,,3.9255492999218404,3.930400100070983,4.416652499930933,4.416652499930933,4.423678799998015,4.707867000019178,5.285804599989206,right,6.0,1,1,0.8621141000185162,369261,001,2025-08-28_10h22.21.260,staircase,2024.2.4,143.84949890641897,2025-08-28 10h22.29.503682 +0530,
3,2,4.0,5.291331199929118,,5.286014900077134,5.291331199929118,5.777567199897021,5.777567199897021,5.784321799874306,6.0689439999405295,7.0773179000243545,right,4.0,1,1,1.2921692999079823,369261,001,2025-08-28_10h22.21.260,staircase,2024.2.4,143.84949890641897,2025-08-28 10h22.29.503682 +0530,
4,2,2.0,7.0825505999382585,,7.077551400056109,7.0825505999382585,7.569082499947399,7.569082499947399,7.575995299965143,7.860340300016105,8.480017499998212,left,-2.0,1,1,0.9059024001471698,369261,001,2025-08-28_10h22.21.260,staircase,2024.2.4,143.84949890641897,2025-08-28 10h22.29.503682 +0530,
5,2,1.0,8.485283900052309,,8.480247400002554,8.485283900052309,8.971659299917519,8.971659299917519,8.978522700024769,9.26290259999223,10.146681899903342,right,1.0,1,1,1.172779600135982,369261,001,2025-08-28_10h22.21.260,staircase,2024.2.4,143.84949890641897,2025-08-28 10h22.29.503682 +0530,
6,2,1.0,10.151761899935082,,10.146894499892369,10.151761899935082,10.63802170008421,10.63802170008421,10.644752299878746,10.929328799946234,11.89610580005683,right,1.0,1,1,1.2524377000518143,369261,001,2025-08-28_10h22.21.260,staircase,2024.2.4,143.84949890641897,2025-08-28 10h22.29.503682 +0530,
7,2,1.0,11.901458899956197,,11.89632759988308,11.901458899956197,12.38769349991344,12.38769349991344,12.394639499951154,12.679173700045794,13.541238300036639,right,1.0,1,1,1.1498608998954296,369261,001,2025-08-28_10h22.21.260,staircase,2024.2.4,143.84949890641897,2025-08-28 10h22.29.503682 +0530,
8,2,1.0,13.546967000002041,,13.541451399913058,13.546967000002041,14.03342380002141,14.03342380002141,14.040232799947262,14.324810300022364,14.965882499935105,right,1.0,1,1,0.9281510000582784,369261,001,2025-08-28_10h22.21.260,staircase,2024.2.4,143.84949890641897,2025-08-28 10h22.29.503682 +0530,
9,2,1.0,14.972092400072142,,14.966121400007978,14.972092400072142,15.456591200083494,15.456591200083494,15.463536399882287,15.747983699897304,16.291338100098073,left,-1.0,1,1,0.8328835000284016,369261,001,2025-08-28_10h22.21.260,staircase,2024.2.4,143.84949890641897,2025-08-28 10h22.29.503682 +0530,
10,2,1.0,16.296646900009364,,16.291619200026616,16.296646900009364,16.78291999991052,16.78291999991052,16.789746100082994,17.074303400004283,17.728271800093353,right,1.0,1,1,0.9399382998235524,369261,001,2025-08-28_10h22.21.260,staircase,2024.2.4,143.84949890641897,2025-08-28 10h22.29.503682 +0530,
11,2,1.0,17.733795600011945,,17.728503899881616,17.733795600011945,18.22015849989839,18.22015849989839,18.227079800097272,18.511580399936065,19.20690119988285,left,-1.0,1,1,0.9796291999518871,369261,001,2025-08-28_10h22.21.260,staircase,2024.2.4,143.84949890641897,2025-08-28 10h22.29.503682 +0530,
12,2,1.0,19.21286979992874,,19.207122900057584,19.21286979992874,19.699206500081345,19.699206500081345,19.705934700090438,19.990600700024515,20.56211970001459,right,1.0,1,1,0.8605291999410838,369261,001,2025-08-28_10h22.21.260,staircase,2024.2.4,143.84949890641897,2025-08-28 10h22.29.503682 +0530,
13,2,1.0,20.566738300025463,,20.562362799886614,20.566738300025463,21.053069700021297,21.053069700021297,21.060262700077146,21.344494000077248,22.068109199870378,left,-1.0,1,1,1.0125386998988688,369261,001,2025-08-28_10h22.21.260,staircase,2024.2.4,143.84949890641897,2025-08-28 10h22.29.503682 +0530,
14,2,1.0,22.07360600004904,,22.06839150004089,22.07360600004904,22.55982319987379,22.55982319987379,22.566727899946272,22.85109360003844,23.442858499940485,right,1.0,1,1,0.88153350003995,369261,001,2025-08-28_10h22.21.260,staircase,2024.2.4,143.84949890641897,2025-08-28 10h22.29.503682 +0530,
15,2,1.0,23.448304299963638,,23.443069899920374,23.448304299963638,23.93451389996335,23.93451389996335,23.941589700058103,24.225994999986142,25.304175999946892,right,1.0,1,1,1.3623532999772578,369261,001,2025-08-28_10h22.21.260,staircase,2024.2.4,143.84949890641897,2025-08-28 10h22.29.503682 +0530,
16,2,1.0,25.309256799984723,,25.304392100078985,25.309256799984723,25.795459399931133,25.795459399931133,25.802399799926206,26.08701190003194,28.372860600007698,right,1.0,1,1,2.573729599826038,369261,001,2025-08-28_10h22.21.260,staircase,2024.2.4,143.84949890641897,2025-08-28 10h22.29.503682 +0530,
17,2,1.0,28.378135100007057,,28.373070999979973,28.378135100007057,28.864423099905252,28.864423099905252,28.871232100063935,29.155822800006717,30.184486499987543,right,1.0,1,1,1.312903800047934,369261,001,2025-08-28_10h22.21.260,staircase,2024.2.4,143.84949890641897,2025-08-28 10h22.29.503682 +0530,
18,2,1.0,30.190307500073686,,30.184653300093487,30.190307500073686,30.676831200020388,30.676831200020388,30.683665700023994,30.96810150006786,32.88598429993726,right,1.0,1,1,2.2025343999266624,369261,001,2025-08-28_10h22.21.260,staircase,2024.2.4,143.84949890641897,2025-08-28 10h22.29.503682 +0530,
19,2,1.0,32.89140020008199,,32.886198200052604,32.89140020008199,33.377719399984926,33.377719399984926,33.384611499961466,33.669101800071076,34.83030020003207,right,1.0,1,1,1.4479369998443872,369261,001,2025-08-28_10h22.21.260,staircase,2024.2.4,143.84949890641897,2025-08-28 10h22.29.503682 +0530,
20,2,1.0,34.835678699892014,,34.830555599881336,34.835678699892014,35.321868899976835,35.321868899976835,35.328872699989006,35.61336289998144,36.29547860007733,right,1.0,1,1,0.9697294000070542,369261,001,2025-08-28_10h22.21.260,staircase,2024.2.4,143.84949890641897,2025-08-28 10h22.29.503682 +0530,
21,2,1.0,36.30077020009048,,36.29573439992964,36.30077020009048,36.78688249993138,36.78688249993138,36.793819200014696,37.07840740005486,38.108407200081274,right,1.0,1,1,1.3189651002176106,369261,001,2025-08-28_10h22.21.260,staircase,2024.2.4,143.84949890641897,2025-08-28 10h22.29.503682 +0530,
22,2,1.0,38.11282559996471,,38.10866119991988,38.11282559996471,38.5991161998827,38.5991161998827,38.606081899954006,38.89056199998595,40.1777438998688,right,1.0,1,1,1.576696600066498,369261,001,2025-08-28_10h22.21.260,staircase,2024.2.4,143.84949890641897,2025-08-28 10h22.29.503682 +0530,
23,2,1.0,40.181906200014055,,40.17795929987915,40.181906200014055,40.668335099937394,40.668335099937394,40.67524280003272,40.95949580008164,43.54413719987497,right,1.0,1,1,2.8717572998721153,369261,001,2025-08-28_10h22.21.260,staircase,2024.2.4,143.84949890641897,2025-08-28 10h22.29.503682 +0530,
24,2,1.0,43.5496880998835,,43.544350099982694,43.5496880998835,44.03584929998033,44.03584929998033,44.04286610009149,44.32724200002849,45.398062699940056,right,1.0,1,1,1.3554865000769496,369261,001,2025-08-28_10h22.21.260,staircase,2024.2.4,143.84949890641897,2025-08-28 10h22.29.503682 +0530,
25,2,1.0,45.40341129992157,,45.398301099892706,45.40341129992157,45.88967949990183,45.88967949990183,45.89672280009836,46.18105780007318,46.91892209998332,left,-1.0,1,1,1.0262768000829965,369261,001,2025-08-28_10h22.21.260,staircase,2024.2.4,143.84949890641897,2025-08-28 10h22.29.503682 +0530,
26,2,1.0,46.9241549000144,,46.91919680009596,46.9241549000144,47.41032060002908,47.41032060002908,47.41732440004125,47.7016588000115,48.23204350005835,right,1.0,1,1,0.8189823001157492,369261,001,2025-08-28_10h22.21.260,staircase,2024.2.4,143.84949890641897,2025-08-28 10h22.29.503682 +0530,
27,2,1.0,48.236369899939746,,48.232320100069046,48.236369899939746,48.72258309996687,48.72258309996687,48.729603899875656,49.01397090009414,50.05701839993708,left,-1.0,1,1,1.3299759000074118,369261,001,2025-08-28_10h22.21.260,staircase,2024.2.4,143.84949890641897,2025-08-28 10h22.29.503682 +0530,
28,2,1.0,50.06249399995431,,50.05726830009371,50.06249399995431,50.54875149996951,50.54875149996951,50.55572220007889,50.84015819989145,51.74453349993564,right,1.0,1,1,1.190534699941054,369261,001,2025-08-28_10h22.21.260,staircase,2024.2.4,143.84949890641897,2025-08-28 10h22.29.503682 +0530,
29,2,1.0,51.74973460007459,,51.74481029994786,51.74973460007459,52.23607870005071,52.23607870005071,52.242719599977136,52.527536999899894,53.56385700008832,right,1.0,1,1,1.3212620001286268,369261,001,2025-08-28_10h22.21.260,staircase,2024.2.4,143.84949890641897,2025-08-28 10h22.29.503682 +0530,
30,2,1.0,53.56911799986847,,53.56412940006703,53.56911799986847,54.05528840003535,54.05528840003535,54.06225479999557,54.34670610004105,55.08366009988822,left,-1.0,1,1,1.023071999894455,369261,001,2025-08-28_10h22.21.260,staircase,2024.2.4,143.84949890641897,2025-08-28 10h22.29.503682 +0530,
31,2,1.0,55.08965300000273,,55.083822699962184,55.08965300000273,55.576006199931726,55.576006199931726,55.58277400000952,55.8673187000677,57.01428469992243,left,-1.0,1,1,1.434833199949935,369261,001,2025-08-28_10h22.21.260,staircase,2024.2.4,143.84949890641897,2025-08-28 10h22.29.503682 +0530,
32,2,1.0,57.01995339989662,,57.01446900004521,57.01995339989662,57.50616710004397,57.50616710004397,57.51312640006654,57.797689999919385,59.57690280000679,left,-1.0,1,1,2.0684144000988454,369261,001,2025-08-28_10h22.21.260,staircase,2024.2.4,143.84949890641897,2025-08-28 10h22.29.503682 +0530,
33,2,1.0,59.58205269998871,,59.57724309992045,59.58205269998871,60.06835429999046,60.06835429999046,60.07529589999467,60.35974969994277,61.61106189992279,left,-1.0,1,1,1.5396741998847574,369261,001,2025-08-28_10h22.21.260,staircase,2024.2.4,143.84949890641897,2025-08-28 10h22.29.503682 +0530,
34,2,1.0,61.61639479990117,,61.61128759989515,61.61639479990117,62.10276719997637,62.10276719997637,62.10969610000029,62.394104700069875,63.70827669999562,left,-1.0,1,1,1.5997024001553655,369261,001,2025-08-28_10h22.21.260,staircase,2024.2.4,143.84949890641897,2025-08-28 10h22.29.503682 +0530,
35,2,1.0,63.71341550000943,,63.70849650003947,63.71341550000943,64.19967269990593,64.19967269990593,64.2069226000458,64.49104120000266,66.61722139990889,left,-1.0,1,1,2.4112700999248773,369261,001,2025-08-28_10h22.21.260,staircase,2024.2.4,143.84949890641897,2025-08-28 10h22.29.503682 +0530,
36,2,1.0,66.62276659999043,,66.61746619991027,66.62276659999043,67.10910989996046,67.10910989996046,67.11603710008785,67.40033819992095,67.9779727999121,left,-1.0,1,1,0.8646277999505401,369261,001,2025-08-28_10h22.21.260,staircase,2024.2.4,143.84949890641897,2025-08-28 10h22.29.503682 +0530,
37,2,1.0,67.98358220001683,,67.97821020008996,67.98358220001683,68.46990099991672,68.46990099991672,68.47692089993507,68.76129340007901,69.40849269996397,right,1.0,1,1,0.935684299794957,369261,001,2025-08-28_10h22.21.260,staircase,2024.2.4,143.84949890641897,2025-08-28 10h22.29.503682 +0530,
38,2,1.0,69.41394830006175,,69.40870100003667,69.41394830006175,69.90027059987187,69.90027059987187,69.90719250007533,70.19169309991412,70.41553850006312,left,-1.0,1,1,0.5085006998851895,369261,001,2025-08-28_10h22.21.260,staircase,2024.2.4,143.84949890641897,2025-08-28 10h22.29.503682 +0530,
39,2,1.0,70.42079810006544,,70.41578899999149,70.42079810006544,70.9070148000028,70.9070148000028,70.91398469987325,71.19837150000967,71.48469409998506,right,1.0,1,1,0.5719151999801397,369261,001,2025-08-28_10h22.21.260,staircase,2024.2.4,143.84949890641897,2025-08-28 10h22.29.503682 +0530,
40,2,1.0,71.49001930002123,,71.4849340999499,71.49001930002123,71.9764034000691,71.9764034000691,71.98338059987873,72.26773459999822,72.53238099999726,left,-1.0,1,1,0.5485107998829335,369261,001,2025-08-28_10h22.21.260,staircase,2024.2.4,143.84949890641897,2025-08-28 10h22.29.503682 +0530,
41,2,1.0,72.5385360000655,,72.53254859987646,72.5385360000655,73.0248521999456,73.0248521999456,73.03184069995768,73.3161901999265,73.421643699985,right,1.0,1,1,0.39094790001399815,369261,001,2025-08-28_10h22.21.260,staircase,2024.2.4,143.84949890641897,2025-08-28 10h22.29.503682 +0530,
42,2,1.0,73.427363099996,,73.4218746998813,73.427363099996,73.91357810003683,73.91357810003683,73.92057810002007,74.20520119997673,74.31761060003191,left,-1.0,1,1,0.3999846000224352,369261,001,2025-08-28_10h22.21.260,staircase,2024.2.4,143.84949890641897,2025-08-28 10h22.29.503682 +0530,
43,2,1.0,74.3230417999439,,74.31783249997534,74.3230417999439,74.8092781000305,74.8092781000305,74.81620080000721,75.1006924000103,75.57415829994716,left,-1.0,1,1,0.7622368999291211,369261,001,2025-08-28_10h22.21.260,staircase,2024.2.4,143.84949890641897,2025-08-28 10h22.29.503682 +0530,
44,2,1.0,75.57971989992075,,75.57437069993466,75.57971989992075,76.06600069999695,76.06600069999695,76.07286689989269,76.35746339987963,76.60884610004723,right,1.0,1,1,0.537579899886623,369261,001,2025-08-28_10h22.21.260,staircase,2024.2.4,143.84949890641897,2025-08-28 10h22.29.503682 +0530,
45,2,1.0,76.6144030999858,,76.60908299987204,76.6144030999858,77.10062759998254,77.10062759998254,77.1075858999975,77.39194640005007,77.92132940003648,left,-1.0,1,1,0.8189747000578791,369261,001,2025-08-28_10h22.21.260,staircase,2024.2.4,143.84949890641897,2025-08-28 10h22.29.503682 +0530,
46,2,1.0,77.92659409996122,,77.92161859991029,77.92659409996122,78.4128999998793,78.4128999998793,78.41985450009815,78.70430399989709,79.27559589990415,left,-1.0,1,1,0.8605692000128329,369261,001,2025-08-28_10h22.21.260,staircase,2024.2.4,143.84949890641897,2025-08-28 10h22.29.503682 +0530,
47,2,1.0,79.28056479990482,,79.27586319996044,79.28056479990482,79.76693199994043,79.76693199994043,79.77380189998075,80.05832289997488,80.30359350005165,right,1.0,1,1,0.5343881000299007,369261,001,2025-08-28_10h22.21.260,staircase,2024.2.4,143.84949890641897,2025-08-28 10h22.29.503682 +0530,
48,2,1.0,80.30832479987293,,80.30383459990844,80.30832479987293,80.79454090003856,80.79454090003856,80.80142859998159,81.08591170003638,81.51755260000937,left,-1.0,1,1,0.7162376001942903,369261,001,2025-08-28_10h22.21.260,staircase,2024.2.4,143.84949890641897,2025-08-28 10h22.29.503682 +0530,
49,2,1.0,81.52333609992638,,81.51774760009721,81.52333609992638,82.00955650000833,82.00955650000833,82.01656570006162,82.30092529999092,82.73358229990117,left,-1.0,1,1,0.721871200017631,369261,001,2025-08-28_10h22.21.260,staircase,2024.2.4,143.84949890641897,2025-08-28 10h22.29.503682 +0530,
50,2,1.0,82.73817909997888,,82.73381690005772,82.73817909997888,83.22466200008057,83.22466200008057,83.23140459996648,83.51596500002779,84.11472900002263,left,-1.0,1,1,0.8837059999350458,369261,001,2025-08-28_10h22.21.260,staircase,2024.2.4,143.84949890641897,2025-08-28 10h22.29.503682 +0530,
51,2,1.0,84.12000519991852,,84.11497709993273,84.12000519991852,84.6063443000894,84.6063443000894,84.61328390007839,84.89756119996309,85.23145240009762,right,1.0,1,1,0.6217720001004636,369261,001,2025-08-28_10h22.21.260,staircase,2024.2.4,143.84949890641897,2025-08-28 10h22.29.503682 +0530,
52,2,1.0,85.23786220001057,,85.23157930001616,85.23786220001057,85.72415079991333,85.72415079991333,85.73107199999504,86.01562509988435,86.32862129993737,left,-1.0,1,1,0.6010112001094967,369261,001,2025-08-28_10h22.21.260,staircase,2024.2.4,143.84949890641897,2025-08-28 10h22.29.503682 +0530,
53,2,1.0,86.33479660004377,,86.32874840009026,86.33479660004377,86.82132239989005,86.82132239989005,86.82816380006261,87.11256040004082,87.28830170002766,right,1.0,1,1,0.4645436001010239,369261,001,2025-08-28_10h22.21.260,staircase,2024.2.4,143.84949890641897,2025-08-28 10h22.29.503682 +0530,
54,2,1.0,87.29327620007098,,87.28850729996338,87.29327620007098,87.7792996999342,87.7792996999342,87.78618369996548,88.07079649996012,88.39850999996997,right,1.0,1,1,0.6119625000283122,369261,001,2025-08-28_10h22.21.260,staircase,2024.2.4,143.84949890641897,2025-08-28 10h22.29.503682 +0530,
55,1,1.0,88.40413070004433,,88.39874450000934,88.40413070004433,88.89032720006071,88.89032720006071,88.89730910002254,89.18175349989906,89.60621410002932,right,1.0,0,0,0.7100216001272202,369261,001,2025-08-28_10h22.21.260,staircase,2024.2.4,143.84949890641897,2025-08-28 10h22.29.503682 +0530,
56,1,2.0,89.61233199993148,,89.60633039986715,89.61233199993148,90.09839090006426,90.09839090006426,90.10541670001112,90.39030369999819,90.71686109993607,left,-2.0,1,1,0.6151407998986542,369261,001,2025-08-28_10h22.21.260,staircase,2024.2.4,143.84949890641897,2025-08-28 10h22.29.503682 +0530,
57,1,2.0,90.72365329996683,,90.71697090007365,90.72365329996683,91.20958989998326,91.20958989998326,91.21639059996232,91.500914900098,91.87752359989099,left,-2.0,1,1,0.6614564000628889,369261,001,2025-08-28_10h22.21.260,staircase,2024.2.4,143.84949890641897,2025-08-28 10h22.29.503682 +0530,
58,1,2.0,91.88291219994426,,91.87776879989542,91.88291219994426,92.369050799869,92.369050799869,92.37598480004817,92.66043899999931,92.98842990002595,right,2.0,1,1,0.6138861000072211,369261,001,2025-08-28_10h22.21.260,staircase,2024.2.4,143.84949890641897,2025-08-28 10h22.29.503682 +0530,
59,1,1.0,92.99389029992744,,92.98866769997403,92.99389029992744,93.48009199998342,93.48009199998342,93.48687290004455,93.77139879995957,94.1902095999103,left,-1.0,1,1,0.7067582998424768,369261,001,2025-08-28_10h22.21.260,staircase,2024.2.4,143.84949890641897,2025-08-28 10h22.29.503682 +0530,
60,0.5,1.0,94.19490469992161,,94.19042450003326,94.19490469992161,94.6813616999425,94.6813616999425,94.68815790000372,94.97277479991317,95.67553950008005,left,-1.0,0,0,0.9905596999451518,369261,001,2025-08-28_10h22.21.260,staircase,2024.2.4,143.84949890641897,2025-08-28 10h22.29.503682 +0530,
61,0.5,1.5,95.68094089999795,,95.67580249998719,95.68094089999795,96.16731849987991,96.16731849987991,96.174107800005,96.45861189998686,96.78640750003979,right,1.5,1,1,0.6156054998282343,369261,001,2025-08-28_10h22.21.260,staircase,2024.2.4,143.84949890641897,2025-08-28 10h22.29.503682 +0530,
62,0.5,1.5,96.79173969989643,,96.7866628000047,96.79173969989643,97.27800119994208,97.27800119994208,97.28522749990225,97.56945639988407,97.97374169994146,left,-1.5,1,1,0.6884064001496881,369261,001,2025-08-28_10h22.21.260,staircase,2024.2.4,143.84949890641897,2025-08-28 10h22.29.503682 +0530,
63,0.5,1.5,97.97907919995487,,97.97401060000993,97.97907919995487,98.46555399987847,98.46555399987847,98.47240470000543,98.75682460004464,99.04324709996581,right,1.5,1,1,0.5738783997949213,369261,001,2025-08-28_10h22.21.260,staircase,2024.2.4,143.84949890641897,2025-08-28 10h22.29.503682 +0530,
64,0.5,1.0,99.04851079988293,,99.04349790001288,99.04851079988293,99.53495989996009,99.53495989996009,99.541725799907,99.8261698000133,100.18885989999399,left,-1.0,1,1,0.6520485000219196,369261,001,2025-08-28_10h22.21.260,staircase,2024.2.4,143.84949890641897,2025-08-28 10h22.29.503682 +0530,
65,0.5,1.0,100.19438380002975,,100.18908459995873,100.19438380002975,100.68037130008452,100.68037130008452,100.68726400006562,100.97162800002843,101.39737659995444,left,-1.0,1,1,0.7147492000367492,369261,001,2025-08-28_10h22.21.260,staircase,2024.2.4,143.84949890641897,2025-08-28 10h22.29.503682 +0530,
66,0.5,1.0,101.40219930000603,,101.39758219989017,101.40219930000603,101.88858349993825,101.88858349993825,101.89550009998493,102.17997559998184,102.54919279995374,right,1.0,1,1,0.6547195999883115,369261,001,2025-08-28_10h22.21.260,staircase,2024.2.4,143.84949890641897,2025-08-28 10h22.29.503682 +0530,
67,0.5,1.0,102.55486899986863,,102.5494051000569,102.55486899986863,103.04112789989449,103.04112789989449,103.04811939992942,103.33250929997303,103.72253190004267,left,-1.0,1,1,0.6759297999087721,369261,001,2025-08-28_10h22.21.260,staircase,2024.2.4,143.84949890641897,2025-08-28 10h22.29.503682 +0530,
68,0.5,1.0,103.72829280002043,,103.72270249994472,103.72829280002043,104.21461590006948,104.21461590006948,104.22134419996291,104.50598050002009,104.85406789998524,right,1.0,1,1,0.6357485998887569,369261,001,2025-08-28_10h22.21.260,staircase,2024.2.4,143.84949890641897,2025-08-28 10h22.29.503682 +0530,
69,0.5,1.0,104.86009799991734,,104.85423290007748,104.86009799991734,105.34637450007722,105.34637450007722,105.35319179994985,105.63781320000999,105.77154250000603,left,-1.0,1,1,0.42141590011306107,369261,001,2025-08-28_10h22.21.260,staircase,2024.2.4,143.84949890641897,2025-08-28 10h22.29.503682 +0530,
70,0.5,1.0,105.77656919998117,,105.77178970002569,105.77656919998117,106.26296099997126,106.26296099997126,106.26984439999796,106.55442889989354,106.81331990007311,right,1.0,1,1,0.5483758999034762,369261,001,2025-08-28_10h22.21.260,staircase,2024.2.4,143.84949890641897,2025-08-28 10h22.29.503682 +0530,
71,0.5,1.0,106.81813959986903,,106.81353450007737,106.81813959986903,107.30433740001172,107.30433740001172,107.31140140001662,107.59583060001023,107.92413170007057,right,1.0,1,1,0.6132726999931037,369261,001,2025-08-28_10h22.21.260,staircase,2024.2.4,143.84949890641897,2025-08-28 10h22.29.503682 +0530,
72,0.5,1.0,107.9290517999325,,107.92444420000538,107.9290517999325,108.4155216999352,108.4155216999352,108.4222583998926,108.70674910000525,109.06288450001739,left,-1.0,1,1,0.6452234000898898,369261,001,2025-08-28_10h22.21.260,staircase,2024.2.4,143.84949890641897,2025-08-28 10h22.29.503682 +0530,
73,0.5,1.0,109.0679228999652,,109.06311309989542,109.0679228999652,109.55418620002456,109.55418620002456,109.56114050000906,109.84606439992785,110.52069590007886,left,-1.0,1,1,0.9612118999939412,369261,001,2025-08-28_10h22.21.260,staircase,2024.2.4,143.84949890641897,2025-08-28 10h22.29.503682 +0530,
74,0.5,1.0,110.5257447999902,,110.5209325000178,110.5257447999902,111.0122767998837,111.0122767998837,111.01916870009154,111.3036861999426,111.6038679999765,right,1.0,1,1,0.5844835999887437,369261,001,2025-08-28_10h22.21.260,staircase,2024.2.4,143.84949890641897,2025-08-28 10h22.29.503682 +0530,
75,0.5,1.0,111.60899119987153,,111.60416490002535,111.60899119987153,112.09546620002948,112.09546620002948,112.10237869992852,112.3868295000866,112.77775719994679,right,1.0,1,1,0.6800967000890523,369261,001,2025-08-28_10h22.21.260,staircase,2024.2.4,143.84949890641897,2025-08-28 10h22.29.503682 +0530,
76,0.5,1.0,112.7825734000653,,112.7779739999678,112.7825734000653,113.26890020002611,113.26890020002611,113.27558079990558,113.5603879999835,113.90150979999453,right,1.0,1,1,0.6285408001858741,369261,001,2025-08-28_10h22.21.260,staircase,2024.2.4,143.84949890641897,2025-08-28 10h22.29.503682 +0530,
77,0.5,1.0,113.90731050004251,,113.90169940004125,113.90731050004251,114.39348269999027,114.39348269999027,114.40045020007528,114.68512449995615,115.06828200002201,right,1.0,1,1,0.6716004000045359,369261,001,2025-08-28_10h22.21.260,staircase,2024.2.4,143.84949890641897,2025-08-28 10h22.29.503682 +0530,
78,0.5,1.0,115.07384159998037,,115.06850180006586,115.07384159998037,115.56020479998551,115.56020479998551,115.56699909991585,115.85135439992882,116.1238963000942,right,1.0,1,1,0.5610927999950945,369261,001,2025-08-28_10h22.21.260,staircase,2024.2.4,143.84949890641897,2025-08-28 10h22.29.503682 +0530,
79,0.5,1.0,116.12920830002986,,116.12401819997467,116.12920830002986,116.61518800002523,116.61518800002523,116.62211290001869,116.90727000008337,117.25686839991249,left,-1.0,1,1,0.6384105999022722,369261,001,2025-08-28_10h22.21.260,staircase,2024.2.4,143.84949890641897,2025-08-28 10h22.29.503682 +0530,
80,0.5,1.0,117.2614410999231,,117.25710060005076,117.2614410999231,117.74732830002904,117.74732830002904,117.75428489991464,118.03863590001129,118.38132019992918,right,1.0,1,1,0.6319365999661386,369261,001,2025-08-28_10h22.21.260,staircase,2024.2.4,143.84949890641897,2025-08-28 10h22.29.503682 +0530,
81,0.5,1.0,118.3858342000749,,118.38156079989858,118.3858342000749,118.8722244000528,118.8722244000528,118.87898939987645,119.16363970004022,119.42939989990555,right,1.0,1,1,0.5496837000828236,369261,001,2025-08-28_10h22.21.260,staircase,2024.2.4,143.84949890641897,2025-08-28 10h22.29.503682 +0530,
82,0.5,1.0,119.43434490007348,,119.42963739996776,119.43434490007348,119.92052839999087,119.92052839999087,119.92746869986877,120.21184769994579,120.53364100004546,right,1.0,1,1,0.6049852001015097,369261,001,2025-08-28_10h22.21.260,staircase,2024.2.4,143.84949890641897,2025-08-28 10h22.29.503682 +0530,
83,0.5,1.0,120.5382888999302,,120.53383579989895,120.5382888999302,121.0245222998783,121.0245222998783,121.03154350002296,121.316025899956,121.67814989993349,right,1.0,1,1,0.6490216001402587,369261,001,2025-08-28_10h22.21.260,staircase,2024.2.4,143.84949890641897,2025-08-28 10h22.29.503682 +0530,
84,0.5,1.0,121.68412250000983,,121.67828799993731,121.68412250000983,122.17009499995038,122.17009499995038,122.17718359990977,122.46158519992605,122.782682799967,left,-1.0,1,1,0.6054695001803339,369261,001,2025-08-28_10h22.21.260,staircase,2024.2.4,143.84949890641897,2025-08-28 10h22.29.503682 +0530,
85,0.5,1.0,122.78799619991332,,122.78289550007321,122.78799619991332,123.27424900000915,123.27424900000915,123.28105910005979,123.56580629991367,123.75470610009506,right,1.0,1,1,0.4769540000706911,369261,001,2025-08-28_10h22.21.260,staircase,2024.2.4,143.84949890641897,2025-08-28 10h22.29.503682 +0530,
86,0.5,1.0,123.76008899998851,,123.75490810000338,123.76008899998851,124.24633960006759,124.24633960006759,124.25335459993221,124.53789209993556,124.84472590009682,left,-1.0,1,1,0.5936393002048135,369261,001,2025-08-28_10h22.21.260,staircase,2024.2.4,143.84949890641897,2025-08-28 10h22.29.503682 +0530,
87,0.5,1.0,124.85016470006667,,124.8449263998773,124.85016470006667,125.33658239990473,125.33658239990473,125.3434460000135,125.6277340000961,125.99784359987825,left,-1.0,1,1,0.6592301998753101,369261,001,2025-08-28_10h22.21.260,staircase,2024.2.4,143.84949890641897,2025-08-28 10h22.29.503682 +0530,
88,0.5,1.0,126.00283270003274,,125.99807869992219,126.00283270003274,126.48911789990962,126.48911789990962,126.49601190001704,126.78061309992336,127.14416730008088,left,-1.0,1,1,0.6483372999355197,369261,001,2025-08-28_10h22.21.260,staircase,2024.2.4,143.84949890641897,2025-08-28 10h22.29.503682 +0530,
89,0.5,1.0,127.14865839993581,,127.14444399997592,127.14865839993581,127.6348258999642,127.6348258999642,127.64179569995031,127.92643320001662,128.24141100002453,right,1.0,1,1,0.603784800041467,369261,001,2025-08-28_10h22.21.260,staircase,2024.2.4,143.84949890641897,2025-08-28 10h22.29.503682 +0530,
90,0.5,1.0,128.24541090009734,,128.2416262999177,128.24541090009734,128.73189499997534,128.73189499997534,128.73871519998647,129.02320259995759,129.4069099999033,left,-1.0,1,1,0.6715039999689907,369261,001,2025-08-28_10h22.21.260,staircase,2024.2.4,143.84949890641897,2025-08-28 10h22.29.503682 +0530,
91,0.5,1.0,129.41210710001178,,129.40717060002498,129.41210710001178,129.89840629999526,129.89840629999526,129.9054433000274,130.18981679994613,130.35129330004565,right,1.0,1,1,0.4510017998982221,369261,001,2025-08-28_10h22.21.260,staircase,2024.2.4,143.84949890641897,2025-08-28 10h22.29.503682 +0530,
92,0.5,1.0,130.35637350007892,,130.35152169992216,130.35637350007892,130.8427601000294,130.8427601000294,130.84966739988886,131.13412799988873,131.39198109996505,right,1.0,1,1,0.5465101001318544,369261,001,2025-08-28_10h22.21.260,staircase,2024.2.4,143.84949890641897,2025-08-28 10h22.29.503682 +0530,
93,0.5,1.0,131.39797460008413,,131.39222589996643,131.39797460008413,131.88412799988873,131.88412799988873,131.89112660009414,132.17551159998402,132.4826926998794,left,-1.0,1,1,0.5918793000746518,369261,001,2025-08-28_10h22.21.260,staircase,2024.2.4,143.84949890641897,2025-08-28 10h22.29.503682 +0530,
94,0.5,1.0,132.48806759994477,,132.48294420004822,132.48806759994477,132.9743641000241,132.9743641000241,132.98117369995452,133.26564090000466,133.55927279987372,right,1.0,1,1,0.5828498001210392,369261,001,2025-08-28_10h22.21.260,staircase,2024.2.4,143.84949890641897,2025-08-28 10h22.29.503682 +0530,
95,0.5,1.0,133.5641775999684,,133.55951029993594,133.5641775999684,134.05064240004867,134.05064240004867,134.057528299978,134.34191259997897,134.55189700005576,right,1.0,1,1,0.4961546999402344,369261,001,2025-08-28_10h22.21.260,staircase,2024.2.4,143.84949890641897,2025-08-28 10h22.29.503682 +0530,
96,0.5,1.0,134.55721889995039,,134.55213680001907,134.55721889995039,135.04343249998055,135.04343249998055,135.05031659989618,135.33475619996898,135.52357649989426,right,1.0,1,1,0.47561020008288324,369261,001,2025-08-28_10h22.21.260,staircase,2024.2.4,143.84949890641897,2025-08-28 10h22.29.503682 +0530,
97,0.5,1.0,135.52933280006982,,135.52377579989843,135.52933280006982,136.015630699927,136.015630699927,136.02234039991163,136.3069964000024,136.56591770006344,left,-1.0,1,1,0.5432230001315475,369261,001,2025-08-28_10h22.21.260,staircase,2024.2.4,143.84949890641897,2025-08-28 10h22.29.503682 +0530,
98,0.5,1.0,136.57059859996662,,136.56617460004054,136.57059859996662,137.05715480004437,137.05715480004437,137.06392539991066,137.34848470008,137.50285990000702,right,1.0,1,1,0.44240349996834993,369261,001,2025-08-28_10h22.21.260,staircase,2024.2.4,143.84949890641897,2025-08-28 10h22.29.503682 +0530,
99,0.5,1.0,137.50822920002975,,137.5031139999628,137.50822920002975,137.99441189994104,137.99441189994104,138.00194439990446,138.28585530002601,138.5582733999472,right,1.0,1,1,0.5571332999970764,369261,001,2025-08-28_10h22.21.260,staircase,2024.2.4,143.84949890641897,2025-08-28 10h22.29.503682 +0530,
100,0.5,1.0,138.56345700006932,,138.5585630000569,138.56345700006932,139.04976570000872,139.04976570000872,139.05683159991167,139.34114939998835,139.62717809993774,right,1.0,1,1,0.5734130998607725,369261,001,2025-08-28_10h22.21.260,staircase,2024.2.4,143.84949890641897,2025-08-28 10h22.29.503682 +0530,
101,0.5,1.0,139.63274560007267,,139.62740110000595,139.63274560007267,140.11914069997147,140.11914069997147,140.12592380004935,140.41050019999966,140.75968559994362,left,-1.0,1,1,0.6380648999474943,369261,001,2025-08-28_10h22.21.260,staircase,2024.2.4,143.84949890641897,2025-08-28 10h22.29.503682 +0530,
102,0.5,1.0,140.76449700002559,,140.7598977999296,140.76449700002559,141.25086820009165,141.25086820009165,141.2578882998787,141.54229409992695,141.90516590001062,right,1.0,1,1,0.6488224000204355,369261,001,2025-08-28_10h22.21.260,staircase,2024.2.4,143.84949890641897,2025-08-28 10h22.29.503682 +0530,
103,0.5,1.0,141.91023760009557,,141.90537329996005,141.91023760009557,142.3965368999634,142.3965368999634,142.4033921000082,142.68795110005885,142.97408890002407,left,-1.0,1,1,0.5730291998479515,369261,001,2025-08-28_10h22.21.260,staircase,2024.2.4,143.84949890641897,2025-08-28 10h22.29.503682 +0530,
104,0.5,1.0,142.9793511000462,,142.97429869999178,142.9793511000462,143.46585380006582,143.46585380006582,143.47274179989472,143.75724849989638,144.38379790005274,right,1.0,1,1,0.914312900044024,369261,001,2025-08-28_10h22.21.260,staircase,2024.2.4,143.84949890641897,2025-08-28 10h22.29.503682 +0530,
105,0.5,1.0,144.38909259997308,,144.38399909995496,144.38909259997308,144.87521560001187,144.87521560001187,144.88212640001439,145.16673370008357,145.3074682999868,left,-1.0,1,1,0.4295563001651317,369261,001,2025-08-28_10h22.21.260,staircase,2024.2.4,143.84949890641897,2025-08-28 10h22.29.503682 +0530,
106,0.5,1.0,145.31236790004186,,145.30769270006567,145.31236790004186,145.79883669991978,145.79883669991978,145.80567750008777,146.0903308999259,146.2522086999379,right,1.0,1,1,0.45022680005058646,369261,001,2025-08-28_10h22.21.260,staircase,2024.2.4,143.84949890641897,2025-08-28 10h22.29.503682 +0530,
107,0.5,1.0,146.25685440003872,,146.25243290001526,146.25685440003872,146.74306829995476,146.74306829995476,146.75006869994104,147.03457679995336,147.38305300008506,left,-1.0,1,1,0.6362373000010848,369261,001,2025-08-28_10h22.21.260,staircase,2024.2.4,143.84949890641897,2025-08-28 10h22.29.503682 +0530,
108,0.5,1.0,147.3885278000962,,147.38324610004202,147.3885278000962,147.87473309994675,147.87473309994675,147.88177959993482,148.1661288999021,148.42474630009383,left,-1.0,1,1,0.5463898999150842,369261,001,2025-08-28_10h22.21.260,staircase,2024.2.4,143.84949890641897,2025-08-28 10h22.29.503682 +0530,
109,0.5,1.0,148.4300637000706,,148.42494950001128,148.4300637000706,148.9163661999628,148.9163661999628,148.92335739987902,149.2078535000328,150.04258559993468,left,-1.0,1,1,1.1191205000504851,369261,001,2025-08-28_10h22.21.260,staircase,2024.2.4,143.84949890641897,2025-08-28 10h22.29.503682 +0530,
110,0.5,1.0,150.04788019997068,,150.0428077999968,150.04788019997068,150.53420510003343,150.53420510003343,150.54113820008934,150.82578320009634,151.25000269990414,left,-1.0,1,1,0.7136216000653803,369261,001,2025-08-28_10h22.21.260,staircase,2024.2.4,143.84949890641897,2025-08-28 10h22.29.503682 +0530,
111,0.5,1.0,151.2559638998937,,151.25010850001127,151.2559638998937,151.7422289000824,151.7422289000824,151.74923379998654,152.03381310007535,152.3059374000877,right,1.0,1,1,0.5606532001402229,369261,001,2025-08-28_10h22.21.260,staircase,2024.2.4,143.84949890641897,2025-08-28 10h22.29.503682 +0530,
112,0.5,1.0,152.3114271000959,,152.30614109989256,152.3114271000959,152.79767400003038,152.79767400003038,152.80470329988748,153.0891752000898,153.31968359998427,right,1.0,1,1,0.5205055000260472,369261,001,2025-08-28_10h22.21.260,staircase,2024.2.4,143.84949890641897,2025-08-28 10h22.29.503682 +0530,
113,0.5,1.0,153.32520839991048,,153.31984180002473,153.32520839991048,153.81145110004582,153.81145110004582,153.81854619993828,154.10298179998063,154.3477203999646,right,1.0,1,1,0.5317296001594514,369261,001,2025-08-28_10h22.21.260,staircase,2024.2.4,143.84949890641897,2025-08-28 10h22.29.503682 +0530,
114,0.5,1.0,154.352918199962,,154.34799010003917,154.352918199962,154.83917839988135,154.83917839988135,154.84607609990053,155.13058399991132,155.48582320008427,left,-1.0,1,1,0.6397315999493003,369261,001,2025-08-28_10h22.21.260,staircase,2024.2.4,143.84949890641897,2025-08-28 10h22.29.503682 +0530,
115,0.5,1.0,155.4915195000358,,155.48601179989055,155.4915195000358,155.97794099990278,155.97794099990278,155.9847412998788,156.2692350000143,156.4936303999275,left,-1.0,1,1,0.5116359998937696,369261,001,2025-08-28_10h22.21.260,staircase,2024.2.4,143.84949890641897,2025-08-28 10h22.29.503682 +0530,
116,0.5,1.0,156.49821670004167,,156.4938999998849,156.49821670004167,156.98470909986645,156.98470909986645,156.99156880006194,157.27609839988872,157.54803159995936,right,1.0,1,1,0.5566115998663008,369261,001,2025-08-28_10h22.21.260,staircase,2024.2.4,143.84949890641897,2025-08-28 10h22.29.503682 +0530,
117,0.5,1.0,157.55379689997062,,157.54826320009306,157.55379689997062,158.04001830006018,158.04001830006018,158.04699679999612,158.33217229996808,158.79205540008843,left,-1.0,1,1,0.749407900031656,369261,001,2025-08-28_10h22.21.260,staircase,2024.2.4,143.84949890641897,2025-08-28 10h22.29.503682 +0530,
118,0.5,1.0,158.7965136000421,,158.79227990005165,158.7965136000421,159.28293749992736,159.28293749992736,159.2899503998924,159.57437909999862,159.84671980002895,left,-1.0,1,1,0.560713900020346,369261,001,2025-08-28_10h22.21.260,staircase,2024.2.4,143.84949890641897,2025-08-28 10h22.29.503682 +0530,
119,0.5,1.0,159.85208970005624,,159.84694149997085,159.85208970005624,160.33834529994056,160.33834529994056,160.34549629990943,160.6298519000411,161.03488259995356,left,-1.0,1,1,0.6944319000467658,369261,001,2025-08-28_10h22.21.260,staircase,2024.2.4,143.84949890641897,2025-08-28 10h22.29.503682 +0530,
120,0.5,1.0,161.03920160001144,,161.03509579994716,161.03920160001144,161.52572729997337,161.52572729997337,161.5328818000853,161.81712740007788,162.42984750005417,left,-1.0,1,1,0.8972988999448717,369261,001,2025-08-28_10h22.21.260,staircase,2024.2.4,143.84949890641897,2025-08-28 10h22.29.503682 +0530,
121,0.5,1.0,162.43490369990468,,162.43008100008592,162.43490369990468,162.92135119996965,162.92135119996965,162.92801679996774,163.21270369994454,163.59626889997162,left,-1.0,1,1,0.671991600189358,369261,001,2025-08-28_10h22.21.260,staircase,2024.2.4,143.84949890641897,2025-08-28 10h22.29.503682 +0530,
122,0.5,1.0,163.60141250002198,,163.59655050002038,163.60141250002198,164.08791120001115,164.08791120001115,164.09475709986873,164.3791968000587,164.81140549993142,left,-1.0,1,1,0.7160404999740422,369261,001,2025-08-28_10h22.21.260,staircase,2024.2.4,143.84949890641897,2025-08-28 10h22.29.503682 +0530,
123,0.5,1.0,164.816779299872,,164.81165149994195,164.816779299872,165.3028283000458,165.3028283000458,165.309896199964,165.59433120000176,165.99843899998814,right,1.0,1,1,0.6890122999902815,369261,001,2025-08-28_10h22.21.260,staircase,2024.2.4,143.84949890641897,2025-08-28 10h22.29.503682 +0530,
124,0.5,1.0,166.00400949991308,,165.99868319998495,166.00400949991308,166.49020810006186,166.49020810006186,166.49711970007047,166.78170649986714,167.1439455000218,right,1.0,1,1,0.6494044999126345,369261,001,2025-08-28_10h22.21.260,staircase,2024.2.4,143.84949890641897,2025-08-28 10h22.29.503682 +0530,
125,0.5,1.0,167.1496760000009,,167.14419990009628,167.1496760000009,167.63594370009378,167.63594370009378,167.64282279997133,167.92731969989836,168.70645900000818,left,-1.0,1,1,1.0641938999760896,369261,001,2025-08-28_10h22.21.260,staircase,2024.2.4,143.84949890641897,2025-08-28 10h22.29.503682 +0530,
126,0.5,1.0,168.71196389989927,,168.70668049994856,168.71196389989927,169.1981919000391,169.1981919000391,169.20505369990133,169.48962810006924,169.7686115000397,right,1.0,1,1,0.5669734999537468,369261,001,2025-08-28_10h22.21.260,staircase,2024.2.4,143.84949890641897,2025-08-28 10h22.29.503682 +0530,
127,0.5,1.0,169.77433749986812,,169.76885590003803,169.77433749986812,170.2606871998869,170.2606871998869,170.26742670009844,170.55180949997157,171.01908540003933,right,1.0,1,1,0.7518832001369447,369261,001,2025-08-28_10h22.21.260,staircase,2024.2.4,143.84949890641897,2025-08-28 10h22.29.503682 +0530,
128,0.5,1.0,171.02418119995855,,171.01935539999977,171.02418119995855,171.51034449995495,171.51034449995495,171.51715880003758,171.8018129998818,172.2619030000642,right,1.0,1,1,0.7481500001158565,369261,001,2025-08-28_10h22.21.260,staircase,2024.2.4,143.84949890641897,2025-08-28 10h22.29.503682 +0530,
129,0.5,1.0,172.26679580006748,,172.2622803999111,172.26679580006748,172.7532730998937,172.7532730998937,172.76022939989343,173.04468609998003,173.5056559999939,left,-1.0,1,1,0.7502202000468969,369261,001,2025-08-28_10h22.21.260,staircase,2024.2.4,143.84949890641897,2025-08-28 10h22.29.503682 +0530,
130,0.5,1.0,173.50981880002655,,173.50592370005324,173.50981880002655,173.99610859993845,173.99610859993845,174.0030900000129,174.28748490009457,174.7128745999653,left,-1.0,1,1,0.7149124001152813,369261,001,2025-08-28_10h22.21.260,staircase,2024.2.4,143.84949890641897,2025-08-28 10h22.29.503682 +0530,
131,0.5,1.0,174.71802919986658,,174.71310089994222,174.71802919986658,175.20424730004743,175.20424730004743,175.21126289991662,175.49566229991615,175.72687150002457,right,1.0,1,1,0.515445499913767,369261,001,2025-08-28_10h22.21.260,staircase,2024.2.4,143.84949890641897,2025-08-28 10h22.29.503682 +0530,
132,0.5,1.0,175.731780000031,,175.72708219988272,175.731780000031,176.21785370004363,176.21785370004363,176.2247629999183,176.50939580006525,177.0040742000565,right,1.0,1,1,0.7817380998749286,369261,001,2025-08-28_10h22.21.260,staircase,2024.2.4,143.84949890641897,2025-08-28 10h22.29.503682 +0530,
133,0.5,1.0,177.00935869989917,,177.00428429991007,177.00935869989917,177.49564419989474,177.49564419989474,177.5025686000008,177.78702479996718,186.52671650005504,left,-1.0,0,0,9.028249199967831,369261,001,2025-08-28_10h22.21.260,staircase,2024.2.4,143.84949890641897,2025-08-28 10h22.29.503682 +0530,
134,0.5,1.5,186.53144449996762,,186.52698029996827,186.53144449996762,187.0220188999083,187.0220188999083,187.0220188999083,187.31337639992125,187.7178058999125,right,1.5,1,1,0.6919152000918984,369261,001,2025-08-28_10h22.21.260,staircase,2024.2.4,143.84949890641897,2025-08-28 10h22.29.503682 +0530,
135,0.5,1.5,187.72302419994958,,187.7180385000538,187.72302419994958,188.20939070009626,188.20939070009626,188.21630329987966,188.5007493000012,188.74541649990715,right,1.5,1,1,0.5290330999996513,369261,001,2025-08-28_10h22.21.260,staircase,2024.2.4,143.84949890641897,2025-08-28 10h22.29.503682 +0530,
136,0.5,1.5,188.75062779989094,,188.74565589986742,188.75062779989094,189.23700589989312,189.23700589989312,189.2438739000354,189.5283776000142,189.80042300000787,right,1.5,1,1,0.5621845999266952,369261,001,2025-08-28_10h22.21.260,staircase,2024.2.4,143.84949890641897,2025-08-28 10h22.29.503682 +0530,
137,0.5,1.0,189.80630879988894,,189.80060519999824,189.80630879988894,190.2924323999323,190.2924323999323,190.29925150005147,190.58375420002267,190.9533967000898,right,1.0,1,1,0.6559612001292408,369261,001,2025-08-28_10h22.21.260,staircase,2024.2.4,143.84949890641897,2025-08-28 10h22.29.503682 +0530,
138,0.5,1.0,190.95880550006405,,190.95358960004523,190.95880550006405,191.44506220007315,191.44506220007315,191.45192050002515,191.73640560009517,192.13433629996143,left,-1.0,1,1,0.6874885000288486,369261,001,2025-08-28_10h22.21.260,staircase,2024.2.4,143.84949890641897,2025-08-28 10h22.29.503682 +0530,
139,0.5,1.0,192.1391527999658,,192.13457809993997,192.1391527999658,192.62534480006434,192.62534480006434,192.63237129990011,192.91672890004702,193.2169987000525,right,1.0,1,1,0.5891626998782158,369261,001,2025-08-28_10h22.21.260,staircase,2024.2.4,143.84949890641897,2025-08-28 10h22.29.503682 +0530,
140,0.5,1.0,193.22231690003537,,193.2172230000142,193.22231690003537,193.7086231999565,193.7086231999565,193.71545760007575,193.99993310007267,194.27952670003287,right,1.0,1,1,0.5686723999679089,369261,001,2025-08-28_10h22.21.260,staircase,2024.2.4,143.84949890641897,2025-08-28 10h22.29.503682 +0530,
141,0.5,1.0,194.28454519994557,,194.27974959998392,194.28454519994557,194.77095500007272,194.77095500007272,194.77799510001205,195.0622898999136,195.37700939993374,right,1.0,1,1,0.6044580000452697,369261,001,2025-08-28_10h22.21.260,staircase,2024.2.4,143.84949890641897,2025-08-28 10h22.29.503682 +0530,
142,0.5,1.0,195.38171539991163,,195.3772084999364,195.38171539991163,195.86796130007133,195.86796130007133,195.87486419989727,196.15931400004774,196.33443009993061,right,1.0,1,1,0.4609909998252988,369261,001,2025-08-28_10h22.21.260,staircase,2024.2.4,143.84949890641897,2025-08-28 10h22.29.503682 +0530,
143,0.5,1.0,196.33987000002526,,196.33466090005822,196.33987000002526,196.82613259996288,196.82613259996288,196.83308720006607,197.11744940001518,197.32759190001525,right,1.0,1,1,0.49929170007817447,369261,001,2025-08-28_10h22.21.260,staircase,2024.2.4,143.84949890641897,2025-08-28 10h22.29.503682 +0530,
144,0.5,1.0,197.33281509997323,,197.3277849999722,197.33281509997323,197.81905500008725,197.81905500008725,197.8259821999818,198.11051820009016,198.29210909991525,left,-1.0,1,1,0.46623599994927645,369261,001,2025-08-28_10h22.21.260,staircase,2024.2.4,143.84949890641897,2025-08-28 10h22.29.503682 +0530,
145,0.5,1.0,198.29783659987152,,198.29235200001858,198.29783659987152,198.7842109000776,198.7842109000776,198.79111999995075,199.0755280999001,199.63271460006945,left,-1.0,1,1,0.8412970001809299,369261,001,2025-08-28_10h22.21.260,staircase,2024.2.4,143.84949890641897,2025-08-28 10h22.29.503682 +0530,
146,0.5,1.0,199.6380656999536,,199.63294659997337,199.6380656999536,200.12422079988755,200.12422079988755,200.131248800084,200.41581179993227,200.86856000008993,left,-1.0,1,1,0.7413504000287503,369261,001,2025-08-28_10h22.21.260,staircase,2024.2.4,143.84949890641897,2025-08-28 10h22.29.503682 +0530,
147,0.5,1.0,200.87386839999817,,200.86881939996965,200.87386839999817,201.36024699988775,201.36024699988775,201.36707999999635,201.6518220999278,202.0765517000109,left,-1.0,1,1,0.7124310000799596,369261,001,2025-08-28_10h22.21.260,staircase,2024.2.4,143.84949890641897,2025-08-28 10h22.29.503682 +0530,
148,0.5,1.0,202.0820331000723,,202.0767967000138,202.0820331000723,202.5684007999953,202.5684007999953,202.5753160000313,202.85975619987585,203.1038790999446,right,1.0,1,1,0.5286779999732971,369261,001,2025-08-28_10h22.21.260,staircase,2024.2.4,143.84949890641897,2025-08-28 10h22.29.503682 +0530,
149,0.5,1.0,203.10944129992276,,203.10409720009193,203.10944129992276,203.59585410007276,203.59585410007276,203.60282019991428,203.88723280001432,204.1599657998886,right,1.0,1,1,0.5615473000798374,369261,001,2025-08-28_10h22.21.260,staircase,2024.2.4,143.84949890641897,2025-08-28 10h22.29.503682 +0530,
150,0.5,1.0,204.1650668999646,,204.16017959988676,204.1650668999646,204.6513386000879,204.6513386000879,204.65831430000253,204.94281110004522,205.14542369986884,right,1.0,1,1,0.48723339987918735,369261,001,2025-08-28_10h22.21.260,staircase,2024.2.4,143.84949890641897,2025-08-28 10h22.29.503682 +0530,
151,0.5,1.0,205.15108669991605,,205.14563170005567,205.15108669991605,205.6373626999557,205.6373626999557,205.64421149995178,205.92875279998407,206.58318910002708,left,-1.0,0,0,0.9390507000498474,369261,001,2025-08-28_10h22.21.260,staircase,2024.2.4,143.84949890641897,2025-08-28 10h22.29.503682 +0530,
152,0.5,1.5,206.588445100002,,206.5834176999051,206.588445100002,207.07461229991168,207.07461229991168,207.0816037999466,207.3660549998749,208.0688078000676,left,-1.5,0,0,0.9892829000018537,369261,001,2025-08-28_10h22.21.260,staircase,2024.2.4,143.84949890641897,2025-08-28 10h22.29.503682 +0530,
153,0.5,2.0,208.07405929989181,,208.06903339992277,208.07405929989181,208.56053039990366,208.56053039990366,208.56730109988712,208.85187559993938,209.60324819991365,left,-2.0,0,0,1.0369770999532193,369261,001,2025-08-28_10h22.21.260,staircase,2024.2.4,143.84949890641897,2025-08-28 10h22.29.503682 +0530,
154,0.5,2.5,209.60873629990965,,209.6034969999455,209.60873629990965,210.0949103999883,210.0949103999883,210.1019135999959,210.38637720001861,210.7219670000486,right,2.5,0,0,0.6245080998633057,369261,001,2025-08-28_10h22.21.260,staircase,2024.2.4,143.84949890641897,2025-08-28 10h22.29.503682 +0530,
155,0.5,3.0,210.72668060008436,,210.722207600018,210.72668060008436,211.21284090005793,211.21284090005793,211.21960809989832,211.50413609994575,211.7001433998812,right,3.0,1,1,0.4802592999767512,369261,001,2025-08-28_10h22.21.260,staircase,2024.2.4,143.84949890641897,2025-08-28 10h22.29.503682 +0530,
156,0.5,3.0,211.70566429989412,,211.70034780004062,211.70566429989412,212.1918092998676,212.1918092998676,212.19880679994822,212.48337380005978,212.63062760001048,right,3.0,1,1,0.435806900030002,369261,001,2025-08-28_10h22.21.260,staircase,2024.2.4,143.84949890641897,2025-08-28 10h22.29.503682 +0530,
157,0.5,3.0,212.63611220009625,,212.6308621999342,212.63611220009625,213.12211899994873,213.12211899994873,213.12898959987797,213.413755599875,213.71388649987057,left,-3.0,1,1,0.5849061999469995,369261,001,2025-08-28_10h22.21.260,staircase,2024.2.4,143.84949890641897,2025-08-28 10h22.29.503682 +0530,
158,0.5,2.5,213.71918400004506,,213.71409379993565,213.71918400004506,214.20550250005908,214.20550250005908,214.21246180008166,214.4968214998953,214.7413055000361,right,2.5,1,1,0.5286912000738084,369261,001,2025-08-28_10h22.21.260,staircase,2024.2.4,143.84949890641897,2025-08-28 10h22.29.503682 +0530,
159,0.5,2.5,214.74676520004869,,214.74153300002217,214.74676520004869,215.2330881000962,215.2330881000962,215.24010639986955,215.52447460009716,215.9429220999591,left,-2.5,1,1,0.7038718000985682,369261,001,2025-08-28_10h22.21.260,staircase,2024.2.4,143.84949890641897,2025-08-28 10h22.29.503682 +0530,
160,0.5,2.5,215.94784869998693,,215.94313469994813,215.94784869998693,216.4341319000814,216.4341319000814,216.44107599998824,216.72570329997689,217.04739689989947,left,-2.5,1,1,0.6109348998870701,369261,001,2025-08-28_10h22.21.260,staircase,2024.2.4,143.84949890641897,2025-08-28 10h22.29.503682 +0530,
161,0.5,2.0,217.051894800039,,217.0476645999588,217.051894800039,217.5383087999653,217.5383087999653,217.54525090008974,217.82968889991753,218.1854047998786,left,-2.0,1,1,0.641063499962911,369261,001,2025-08-28_10h22.21.260,staircase,2024.2.4,143.84949890641897,2025-08-28 10h22.29.503682 +0530,
162,0.5,2.0,218.19077019998804,,218.1856478000991,218.19077019998804,218.6769948999863,218.6769948999863,218.68398279999383,218.96832980006002,219.10913420002908,right,2.0,1,1,0.42964890017174184,369261,001,2025-08-28_10h22.21.260,staircase,2024.2.4,143.84949890641897,2025-08-28 10h22.29.503682 +0530,
163,0.5,2.0,219.11426059994847,,219.10934379999526,219.11426059994847,219.6005096998997,219.6005096998997,219.6074351000134,219.89188480004668,219.94939820002764,right,2.0,1,1,0.3470306999515742,369261,001,2025-08-28_10h22.21.260,staircase,2024.2.4,143.84949890641897,2025-08-28 10h22.29.503682 +0530,
164,0.5,1.5,219.95442830002867,,219.94964060001075,219.95442830002867,220.44072739989497,220.44072739989497,220.44766619987786,220.73205120000057,220.8106342998799,left,-1.5,0,0,0.36705849994905293,369261,001,2025-08-28_10h22.21.260,staircase,2024.2.4,143.84949890641897,2025-08-28 10h22.29.503682 +0530,
165,0.5,2.0,220.81536059989594,,220.81088949996047,220.81536059989594,221.3016806000378,221.3016806000378,221.30871009989642,221.5930099999532,221.7126791998744,right,2.0,1,1,0.40742950001731515,369261,001,2025-08-28_10h22.21.260,staircase,2024.2.4,143.84949890641897,2025-08-28 10h22.29.503682 +0530,
166,0.5,2.0,221.7178815000225,,221.71291109989397,221.7178815000225,222.20432400004938,222.20432400004938,222.21131210005842,222.49576839990914,222.7193597999867,left,-2.0,1,1,0.5075342999771237,369261,001,2025-08-28_10h22.21.260,staircase,2024.2.4,143.84949890641897,2025-08-28 10h22.29.503682 +0530,
167,0.5,2.0,222.7248426999431,,222.71960579999723,222.7248426999431,223.21126669994555,223.21126669994555,223.21818530000746,223.5028186000418,223.6154555999674,right,2.0,1,1,0.402027599979192,369261,001,2025-08-28_10h22.21.260,staircase,2024.2.4,143.84949890641897,2025-08-28 10h22.29.503682 +0530,
168,0.5,1.5,223.6206825999543,,223.61568520008586,223.6206825999543,224.10685290000401,224.10685290000401,224.11378740007058,224.3983052999247,224.6292628000956,left,-1.5,1,1,0.5158158999402076,369261,001,2025-08-28_10h22.21.260,staircase,2024.2.4,143.84949890641897,2025-08-28 10h22.29.503682 +0530,
169,0.5,1.5,224.63437790004537,,224.6295209999662,224.63437790004537,225.12077399995178,225.12077399995178,225.12764459988102,225.41200009989552,225.5449310000986,right,1.5,1,1,0.4173653000034392,369261,001,2025-08-28_10h22.21.260,staircase,2024.2.4,143.84949890641897,2025-08-28 10h22.29.503682 +0530,
170,0.5,1.5,225.55068510002457,,225.54511539987288,225.55068510002457,226.03710160008632,226.03710160008632,226.04408110002987,226.32845059991814,226.45484929997474,left,-1.5,1,1,0.41001210012473166,369261,001,2025-08-28_10h22.21.260,staircase,2024.2.4,143.84949890641897,2025-08-28 10h22.29.503682 +0530,
171,0.5,1.0,226.46050380007364,,226.45507379993796,226.46050380007364,226.94662380008958,226.94662380008958,226.95351550006308,227.23812390002422,227.31693389988504,right,1.0,1,1,0.36853959993459284,369261,001,2025-08-28_10h22.21.260,staircase,2024.2.4,143.84949890641897,2025-08-28 10h22.29.503682 +0530,
172,0.5,1.0,227.32137589994818,,227.31717819999903,227.32137589994818,227.80748439999297,227.80748439999297,227.81474930001423,,228.07336449995637,left,-1.0,1,1,0.2639646998140961,369261,001,2025-08-28_10h22.21.260,staircase,2024.2.4,143.84949890641897,2025-08-28 10h22.29.503682 +0530,
173,0.5,1.0,228.07815449987538,,228.07359579997137,228.07815449987538,228.56451219995506,228.56451219995506,228.57146340003237,228.85600110003725,229.07244380004704,left,-1.0,1,1,0.5007869000546634,369261,001,2025-08-28_10h22.21.260,staircase,2024.2.4,143.84949890641897,2025-08-28 10h22.29.503682 +0530,
174,0.5,1.0,229.07827860000543,,229.0726588999387,229.07827860000543,229.5644199999515,229.5644199999515,229.57120459992439,229.8557593000587,230.0866125000175,left,-1.0,1,1,0.5193382001016289,369261,001,2025-08-28_10h22.21.260,staircase,2024.2.4,143.84949890641897,2025-08-28 10h22.29.503682 +0530,
175,0.5,1.0,230.09173909993842,,230.08685319987126,230.09173909993842,230.5779059000779,230.5779059000779,230.58475239994004,230.86941869999282,231.0519763000775,right,1.0,1,1,0.47109160013496876,369261,001,2025-08-28_10h22.21.260,staircase,2024.2.4,143.84949890641897,2025-08-28 10h22.29.503682 +0530,
176,0.5,1.0,231.05705629987642,,231.05218179989606,231.05705629987642,231.54325499990955,231.54325499990955,231.55024949996732,231.8346959000919,232.2732865998987,left,-1.0,1,1,0.7262216000817716,369261,001,2025-08-28_10h22.21.260,staircase,2024.2.4,143.84949890641897,2025-08-28 10h22.29.503682 +0530,
177,0.5,1.0,232.27895749988966,,232.27350479993038,232.27895749988966,232.76536850002594,232.76536850002594,232.7723135999404,233.0567890999373,233.6762713000644,right,1.0,1,1,0.9039094001054764,369261,001,2025-08-28_10h22.21.260,staircase,2024.2.4,143.84949890641897,2025-08-28 10h22.29.503682 +0530,
178,0.5,1.0,233.68154640006833,,233.67649940005504,233.68154640006833,234.16774319997057,234.16774319997057,234.17524609994143,234.45912189991213,235.65501639992,left,-1.0,0,0,1.4833745998330414,369261,001,2025-08-28_10h22.21.260,staircase,2024.2.4,143.84949890641897,2025-08-28 10h22.29.503682 +0530,
179,0.5,1.5,235.66035109991208,,235.6552506000735,235.66035109991208,236.14666790002957,236.14666790002957,236.15358630008996,236.43818709999323,237.22417460009456,left,-1.5,1,1,1.0702814999967813,369261,001,2025-08-28_10h22.21.260,staircase,2024.2.4,143.84949890641897,2025-08-28 10h22.29.503682 +0530,
180,0.5,1.5,237.22979229991324,,237.22440379997715,237.22979229991324,237.7158902999945,237.7158902999945,237.7229710998945,238.00714590004645,238.3498472000938,right,1.5,1,1,0.6294815000146627,369261,001,2025-08-28_10h22.21.260,staircase,2024.2.4,143.84949890641897,2025-08-28 10h22.29.503682 +0530,
181,0.5,1.5,238.35442960006185,,238.3501241998747,238.35442960006185,238.8408842999488,238.8408842999488,238.84774139989167,239.13223250000738,239.51558250002563,right,1.5,1,1,0.6711416998878121,369261,001,2025-08-28_10h22.21.260,staircase,2024.2.4,143.84949890641897,2025-08-28 10h22.29.503682 +0530,
182,0.5,1.0,239.5209971999284,,239.5158223998733,239.5209971999284,240.00729179987684,240.00729179987684,240.0141485000495,240.29882899997756,240.7517405000981,left,-1.0,1,1,0.7375638999510556,369261,001,2025-08-28_10h22.21.260,staircase,2024.2.4,143.84949890641897,2025-08-28 10h22.29.503682 +0530,
183,0.5,1.0,240.75685009988956,,240.75196200003847,240.75685009988956,241.24317559995688,241.24317559995688,241.25011870008893,241.5347652998753,243.16109400009736,left,-1.0,0,0,1.9120618000160903,369261,001,2025-08-28_10h22.21.260,staircase,2024.2.4,143.84949890641897,2025-08-28 10h22.29.503682 +0530,
184,0.5,1.5,243.16624519997276,,243.1613191999495,243.16624519997276,243.65250100009143,243.65250100009143,243.65950389998034,243.94377680006437,244.43142009992152,left,-1.5,1,1,0.7741449999157339,369261,001,2025-08-28_10h22.21.260,staircase,2024.2.4,143.84949890641897,2025-08-28 10h22.29.503682 +0530,
185,0.5,1.5,244.43673800001852,,244.431782099884,244.43673800001852,244.92318919999525,244.92318919999525,244.93010340002365,245.21472309995443,245.49409270007163,left,-1.5,1,1,0.5640398000832647,369261,001,2025-08-28_10h22.21.260,staircase,2024.2.4,143.84949890641897,2025-08-28 10h22.29.503682 +0530,
186,0.5,1.5,245.49927209992893,,245.4943353999406,245.49927209992893,245.98564599989913,245.98564599989913,245.99261859990656,246.27703480003402,246.57016719994135,right,1.5,1,1,0.5798746000509709,369261,001,2025-08-28_10h22.21.260,staircase,2024.2.4,143.84949890641897,2025-08-28 10h22.29.503682 +0530,
187,0.5,1.0,246.57556280004792,,246.57039700006135,246.57556280004792,247.06188920000568,247.06188920000568,247.06859369995072,247.35330999991857,247.69531359989196,right,1.0,1,1,0.6267037000507116,369261,001,2025-08-28_10h22.21.260,staircase,2024.2.4,143.84949890641897,2025-08-28 10h22.29.503682 +0530,
188,0.5,1.0,247.70025169989094,,247.69556979998015,247.70025169989094,248.1865612999536,248.1865612999536,248.19351290003397,248.4782028000336,248.96585269994102,left,-1.0,1,1,0.7734916000626981,369261,001,2025-08-28_10h22.21.260,staircase,2024.2.4,143.84949890641897,2025-08-28 10h22.29.503682 +0530,
189,0.5,1.0,248.97097850008868,,248.96607799991034,248.97097850008868,249.45730199990794,249.45730199990794,249.46407649992034,249.74881589994766,250.27771990001202,right,1.0,1,1,0.8179706998635083,369261,001,2025-08-28_10h22.21.260,staircase,2024.2.4,143.84949890641897,2025-08-28 10h22.29.503682 +0530,
190,0.5,1.0,250.2833457000088,,250.27794599998742,250.2833457000088,250.76963869994506,250.76963869994506,250.7765601000283,251.06117339991033,251.34757609991357,right,1.0,1,1,0.5760391999501735,369261,001,2025-08-28_10h22.21.260,staircase,2024.2.4,143.84949890641897,2025-08-28 10h22.29.503682 +0530,
191,0.5,1.0,251.35268860007636,,251.34781519998796,251.35268860007636,251.8389787999913,251.8389787999913,251.84595709992573,252.1301778999623,252.43719319999218,left,-1.0,1,1,0.591772599844262,369261,001,2025-08-28_10h22.21.260,staircase,2024.2.4,143.84949890641897,2025-08-28 10h22.29.503682 +0530,
192,0.5,1.0,252.44270940008573,,252.4374255000148,252.44270940008573,252.92902319994755,252.92902319994755,252.93599210004322,253.2202707999386,253.5970739000477,right,1.0,1,1,0.6647548000328243,369261,001,2025-08-28_10h22.21.260,staircase,2024.2.4,143.84949890641897,2025-08-28 10h22.29.503682 +0530,
193,0.5,1.0,253.6022902999539,,253.59728590003215,253.6022902999539,254.08846329990774,254.08846329990774,254.09538630000316,254.3799312999472,254.63867100002244,left,-1.0,1,1,0.5427574999630451,369261,001,2025-08-28_10h22.21.260,staircase,2024.2.4,143.84949890641897,2025-08-28 10h22.29.503682 +0530,
194,0.5,1.0,254.6437826999463,,254.63888329989277,254.6437826999463,255.1301043999847,255.1301043999847,255.13707960001193,255.4215843998827,255.5832078999374,right,1.0,1,1,0.45104270009323955,369261,001,2025-08-28_10h22.21.260,staircase,2024.2.4,143.84949890641897,2025-08-28 10h22.29.503682 +0530,
195,0.5,1.0,255.58812389988452,,255.58343799994327,255.58812389988452,256.0744131000247,256.0744131000247,256.08127179997973,256.3657867000438,256.86707719997503,left,-1.0,1,1,0.7879956001415849,369261,001,2025-08-28_10h22.21.260,staircase,2024.2.4,143.84949890641897,2025-08-28 10h22.29.503682 +0530,
196,0.5,1.0,256.8727661999874,,256.86731019988656,256.8727661999874,257.3589989000466,257.3589989000466,257.36594859999605,257.6501791998744,258.3943570998963,left,-1.0,0,0,1.0280567998997867,369261,001,2025-08-28_10h22.21.260,staircase,2024.2.4,143.84949890641897,2025-08-28 10h22.29.503682 +0530,
197,0.5,1.5,258.40029140003026,,258.3945732000284,258.40029140003026,258.8864539999049,258.8864539999049,258.89348410000093,259.1777786000166,259.73466539988294,right,1.5,1,1,0.8411697000265121,369261,001,2025-08-28_10h22.21.260,staircase,2024.2.4,143.84949890641897,2025-08-28 10h22.29.503682 +0530,
198,0.5,1.5,259.7404209000524,,259.73492050007917,259.7404209000524,260.22673680004664,260.22673680004664,260.23348119994625,260.51789440005086,262.7341972000431,right,1.5,1,1,2.5004336999263614,369261,001,2025-08-28_10h22.21.260,staircase,2024.2.4,143.84949890641897,2025-08-28 10h22.29.503682 +0530,
199,0.5,1.5,262.7402411000803,,262.7344257000368,262.7402411000803,263.2260195999406,263.2260195999406,263.2332416998688,263.5175483999774,263.92170770000666,right,1.5,1,1,0.68883359991014,369261,001,2025-08-28_10h22.21.260,staircase,2024.2.4,143.84949890641897,2025-08-28 10h22.29.503682 +0530,
