pos,corr_resp,thisN,thisTrialN,thisRepN,key_resp.keys,key_resp.corr,key_resp.rt,key_resp.duration,trials.thisRepN,trials.thisTrialN,trials.thisN,trials.thisIndex,trials_2.thisRepN,trials_2.thisTrialN,trials_2.thisN,trials_2.thisIndex,thisRow.t,notes,trial.started,fixation.started,Line_1.started,Line_2.started,Line_3.started,Line_4.started,fixation.stopped,Probe.started,key_resp.started,trial.stopped,trials.key_resp.keys,trials.key_resp.corr,trials.key_resp.rt,trials.key_resp.duration,trials_2.key_resp.keys,trials_2.key_resp.corr,trials_2.key_resp.rt,trials_2.key_resp.duration,participant,session,date,expName,psychopyVersion,frameRate,expStart,
-50,x,0,0,0,x,1,2.006357999998727,None,0,0,0,0,,,,,0.021133699992788024,,0.01749980000022333,0.021133699992788024,0.9925323999923421,0.9925323999923421,0.9925323999923421,0.9925323999923421,1.0133121999970172,1.9924845000059577,1.9924845000059577,4.009530399998766,x,1,2.006357999998727,None,,,,,048011,001,2025-10-05_22h24.32.993,Motor Learning,2024.2.4,144.09388007182923,2025-10-05 22h25.27.352506 +0530,
150,v,1,1,0,c,0,1.1138694999972358,None,0,1,1,1,,,,,4.014402100001462,,4.009896599993226,4.014402100001462,5.005798099999083,5.005798099999083,5.005798099999083,5.005798099999083,5.005798099999083,6.005681599999662,6.005681599999662,7.1249037999950815,c,0,1.1138694999972358,None,,,,,048011,001,2025-10-05_22h24.32.993,Motor Learning,2024.2.4,144.09388007182923,2025-10-05 22h25.27.352506 +0530,
50,c,2,2,0,x,0,1.2914752999931807,None,0,2,2,2,,,,,7.130357400004868,,7.125309199996991,7.130357400004868,8.116531299994676,8.116531299994676,8.116531299994676,8.116531299994676,8.123322500003269,9.116294199993717,9.116294199993717,10.409791900005075,x,0,1.2914752999931807,None,,,,,048011,001,2025-10-05_22h24.32.993,Motor Learning,2024.2.4,144.09388007182923,2025-10-05 22h25.27.352506 +0530,
-150,z,3,3,0,z,1,6.332487300009234,None,0,3,3,3,,,,,10.414845199993579,,10.410202600003686,10.414845199993579,11.400758699994185,11.400758699994185,11.400758699994185,11.400758699994185,11.407774299994344,12.400499900002615,12.400499900002615,18.734738500003004,z,1,6.332487300009234,None,,,,,048011,001,2025-10-05_22h24.32.993,Motor Learning,2024.2.4,144.09388007182923,2025-10-05 22h25.27.352506 +0530,
-50,x,4,0,1,x,1,1.0752248999924632,None,1,0,4,0,,,,,18.739832299994305,,18.735117899996112,18.739832299994305,19.725831899995683,19.725831899995683,19.725831899995683,19.725831899995683,19.732753699994646,20.72582589999365,20.72582589999365,21.8035785999964,x,1,1.0752248999924632,None,,,,,048011,001,2025-10-05_22h24.32.993,Motor Learning,2024.2.4,144.09388007182923,2025-10-05 22h25.27.352506 +0530,
150,v,5,1,1,v,1,0.7142587999987882,None,1,1,5,1,,,,,21.808742299996084,,21.80406260000018,21.808742299996084,22.794680099992547,22.794680099992547,22.794680099992547,22.794680099992547,22.80178189999424,23.79465349999373,23.79465349999373,24.511538499995368,v,1,0.7142587999987882,None,,,,,048011,001,2025-10-05_22h24.32.993,Motor Learning,2024.2.4,144.09388007182923,2025-10-05 22h25.27.352506 +0530,
50,c,6,2,1,c,1,0.8683683999988716,None,1,2,6,2,,,,,24.516845499994815,,24.511943899997277,24.516845499994815,25.502883199995267,25.502883199995267,25.502883199995267,25.502883199995267,25.509827699992456,26.5025328000047,26.5025328000047,27.372681799999555,c,1,0.8683683999988716,None,,,,,048011,001,2025-10-05_22h24.32.993,Motor Learning,2024.2.4,144.09388007182923,2025-10-05 22h25.27.352506 +0530,
-150,z,7,3,1,z,1,0.7860980999976164,None,1,3,7,3,,,,,27.377534600003855,,27.37307420000434,27.377534600003855,28.363733299993328,28.363733299993328,28.363733299993328,28.363733299993328,28.37024879999808,29.363357800000813,29.363357800000813,30.156944899994414,z,1,0.7860980999976164,None,,,,,048011,001,2025-10-05_22h24.32.993,Motor Learning,2024.2.4,144.09388007182923,2025-10-05 22h25.27.352506 +0530,
-50,x,8,0,2,x,1,0.6191405999998096,None,2,0,8,0,,,,,30.162385499992524,,30.157292300005793,30.162385499992524,31.147847300002468,31.147847300002468,31.147847300002468,31.147847300002468,31.15487879999273,32.147482500004116,32.147482500004116,32.77325660000497,x,1,0.6191405999998096,None,,,,,048011,001,2025-10-05_22h24.32.993,Motor Learning,2024.2.4,144.09388007182923,2025-10-05 22h25.27.352506 +0530,
150,v,9,1,2,v,1,0.779709800001001,None,2,1,9,1,,,,,32.77926779999689,,32.77347469999222,32.77926779999689,33.76548439999169,33.76548439999169,33.76548439999169,33.76548439999169,33.772346700003254,34.76530769999954,34.76530769999954,35.55174189999525,v,1,0.779709800001001,None,,,,,048011,001,2025-10-05_22h24.32.993,Motor Learning,2024.2.4,144.09388007182923,2025-10-05 22h25.27.352506 +0530,
50,c,10,2,2,c,1,0.5143726000096649,None,2,2,10,2,,,,,35.55704549999791,,35.55215990000579,35.55704549999791,36.54304129999946,36.54304129999946,36.54304129999946,36.54304129999946,36.54978349999874,37.54268640000373,37.54268640000373,38.05893749999814,c,1,0.5143726000096649,None,,,,,048011,001,2025-10-05_22h24.32.993,Motor Learning,2024.2.4,144.09388007182923,2025-10-05 22h25.27.352506 +0530,
-150,z,11,3,2,z,1,0.5588477999990573,None,2,3,11,3,,,,,38.06336879999435,,38.05934019999404,38.06336879999435,39.049473999999464,39.049473999999464,39.049473999999464,39.049473999999464,39.05636839999352,40.0493523000041,40.0493523000041,40.613356599991675,z,1,0.5588477999990573,None,,,,,048011,001,2025-10-05_22h24.32.993,Motor Learning,2024.2.4,144.09388007182923,2025-10-05 22h25.27.352506 +0530,
-50,x,12,0,3,x,1,0.5251035999972373,None,3,0,12,0,,,,,40.61878699999943,,40.61375289999705,40.61878699999943,41.604385500002536,41.604385500002536,41.604385500002536,41.604385500002536,41.61147550000169,42.60442279999552,42.60442279999552,43.1337663000013,x,1,0.5251035999972373,None,,,,,048011,001,2025-10-05_22h24.32.993,Motor Learning,2024.2.4,144.09388007182923,2025-10-05 22h25.27.352506 +0530,
150,v,13,1,3,v,1,0.5833156000007875,None,3,1,13,1,,,,,43.139123600005405,,43.13417190000473,43.139123600005405,44.12498429999687,44.12498429999687,44.12498429999687,44.12498429999687,44.13197550000041,45.124882499992964,45.124882499992964,45.71001049999904,v,1,0.5833156000007875,None,,,,,048011,001,2025-10-05_22h24.32.993,Motor Learning,2024.2.4,144.09388007182923,2025-10-05 22h25.27.352506 +0530,
50,c,14,2,3,c,1,1.194280699986848,None,3,2,14,2,,,,,45.71501509999507,,45.71043120000104,45.71501509999507,46.70111209999595,46.70111209999595,46.70111209999595,46.70111209999595,46.70795860000362,47.700892199994996,47.700892199994996,48.89727069999208,c,1,1.194280699986848,None,,,,,048011,001,2025-10-05_22h24.32.993,Motor Learning,2024.2.4,144.09388007182923,2025-10-05 22h25.27.352506 +0530,
-150,z,15,3,3,z,1,0.5381079000071622,None,3,3,15,3,,,,,48.90202649999992,,48.89774949999992,48.90202649999992,49.888149099992006,49.888149099992006,49.888149099992006,49.888149099992006,49.895047500001965,50.88798689999385,50.88798689999385,51.4307387000008,z,1,0.5381079000071622,None,,,,,048011,001,2025-10-05_22h24.32.993,Motor Learning,2024.2.4,144.09388007182923,2025-10-05 22h25.27.352506 +0530,
-50,x,16,0,4,x,1,0.5877057000034256,None,4,0,16,0,,,,,51.43638460000511,,51.431076199995005,51.43638460000511,52.42258800000127,52.42258800000127,52.42258800000127,52.42258800000127,52.42946289999236,53.42245240000193,53.42245240000193,54.0141142999928,x,1,0.5877057000034256,None,,,,,048011,001,2025-10-05_22h24.32.993,Motor Learning,2024.2.4,144.09388007182923,2025-10-05 22h25.27.352506 +0530,
150,v,17,1,4,c,0,0.6031152999930782,None,4,1,17,1,,,,,54.019514500003424,,54.01448129999335,54.019514500003424,55.005610799998976,55.005610799998976,55.005610799998976,55.005610799998976,55.012523400000646,56.00551529999939,56.00551529999939,56.611441200002446,c,0,0.6031152999930782,None,,,,,048011,001,2025-10-05_22h24.32.993,Motor Learning,2024.2.4,144.09388007182923,2025-10-05 22h25.27.352506 +0530,
50,c,18,2,4,c,1,0.8167443999991519,None,4,2,18,2,,,,,56.61628159999964,,56.61180479999166,56.61628159999964,57.60232520000136,57.60232520000136,57.60232520000136,57.60232520000136,57.60929649999889,58.602104699995834,58.602104699995834,59.42317829999956,c,1,0.8167443999991519,None,,,,,048011,001,2025-10-05_22h24.32.993,Motor Learning,2024.2.4,144.09388007182923,2025-10-05 22h25.27.352506 +0530,
-150,z,19,3,4,z,1,0.5066057000076398,None,4,3,19,3,,,,,59.428521199995885,,59.42353749999893,59.428521199995885,60.41472050000448,60.41472050000448,60.41472050000448,60.41472050000448,60.42136500000197,61.41435389999242,61.41435389999242,61.922981900002924,z,1,0.5066057000076398,None,,,,,048011,001,2025-10-05_22h24.32.993,Motor Learning,2024.2.4,144.09388007182923,2025-10-05 22h25.27.352506 +0530,
-50,x,20,0,5,x,1,0.6853548999933992,None,5,0,20,0,,,,,61.92794569999387,,61.92351090000011,61.92794569999387,62.91407519999484,62.91407519999484,62.91407519999484,62.91407519999484,62.92107690000557,63.91400319999957,63.91400319999957,64.60305239999434,x,1,0.6853548999933992,None,,,,,048011,001,2025-10-05_22h24.32.993,Motor Learning,2024.2.4,144.09388007182923,2025-10-05 22h25.27.352506 +0530,
150,v,21,1,5,v,1,0.862683700004709,None,5,1,21,1,,,,,64.60831640000106,,64.60352319999947,64.60831640000106,65.59430409999914,65.59430409999914,65.59430409999914,65.59430409999914,65.6011514999991,66.59406889999809,66.59406889999809,67.46326029999182,v,1,0.862683700004709,None,,,,,048011,001,2025-10-05_22h24.32.993,Motor Learning,2024.2.4,144.09388007182923,2025-10-05 22h25.27.352506 +0530,
50,c,22,2,5,c,1,1.190326099997037,None,5,2,22,2,,,,,67.4688851999963,,67.46367499999178,67.4688851999963,68.45494120000512,68.45494120000512,68.45494120000512,68.45494120000512,68.46174790000077,69.45467150000331,69.45467150000331,70.65036879999388,c,1,1.190326099997037,None,,,,,048011,001,2025-10-05_22h24.32.993,Motor Learning,2024.2.4,144.09388007182923,2025-10-05 22h25.27.352506 +0530,
-150,z,23,3,5,z,1,0.3815737000113586,None,5,3,23,3,,,,,70.65598379999574,,70.65075830000569,70.65598379999574,71.64193599999999,71.64193599999999,71.64193599999999,71.64193599999999,71.64884439999878,72.64187429999583,72.64187429999583,73.02581540000392,z,1,0.3815737000113586,None,,,,,048011,001,2025-10-05_22h24.32.993,Motor Learning,2024.2.4,144.09388007182923,2025-10-05 22h25.27.352506 +0530,
-50,x,24,0,6,x,1,0.46973379999690223,None,6,0,24,0,,,,,73.0304490999988,,73.0261945999955,73.0304490999988,74.01651539999875,74.01651539999875,74.01651539999875,74.01651539999875,74.02357839999604,75.01656449999427,75.01656449999427,75.48999950000143,x,1,0.46973379999690223,None,,,,,048011,001,2025-10-05_22h24.32.993,Motor Learning,2024.2.4,144.09388007182923,2025-10-05 22h25.27.352506 +0530,
150,v,25,1,6,v,1,0.9219347000034759,None,6,1,25,1,,,,,75.49551740000607,,75.49036280000291,75.49551740000607,76.48156079999171,76.48156079999171,76.48156079999171,76.48156079999171,76.48869800000102,77.48161059999256,77.48161059999256,78.40645149999182,v,1,0.9219347000034759,None,,,,,048011,001,2025-10-05_22h24.32.993,Motor Learning,2024.2.4,144.09388007182923,2025-10-05 22h25.27.352506 +0530,
50,c,26,2,6,c,1,1.6377331999974558,None,6,2,26,2,,,,,78.41179509999347,,78.40676820000226,78.41179509999347,79.39788079999562,79.39788079999562,79.39788079999562,79.39788079999562,79.4048005999939,80.397636099995,80.397636099995,82.03828809999686,c,1,1.6377331999974558,None,,,,,048011,001,2025-10-05_22h24.32.993,Motor Learning,2024.2.4,144.09388007182923,2025-10-05 22h25.27.352506 +0530,
-150,z,27,3,6,z,1,0.4858715000009397,None,6,3,27,3,,,,,82.04326969999238,,82.03867589999572,82.04326969999238,83.02931309999258,83.02931309999258,83.02931309999258,83.02931309999258,83.03631969999697,84.0291167999967,84.0291167999967,84.51665879999928,z,1,0.4858715000009397,None,,,,,048011,001,2025-10-05_22h24.32.993,Motor Learning,2024.2.4,144.09388007182923,2025-10-05 22h25.27.352506 +0530,
-50,x,28,0,7,x,1,0.4641940000001341,None,7,0,28,0,,,,,84.52203350000491,,84.51709209999535,84.52203350000491,85.50795590000052,85.50795590000052,85.50795590000052,85.50795590000052,85.51498959999299,86.50814619999437,86.50814619999437,86.97523280000314,x,1,0.4641940000001341,None,,,,,048011,001,2025-10-05_22h24.32.993,Motor Learning,2024.2.4,144.09388007182923,2025-10-05 22h25.27.352506 +0530,
150,v,29,1,7,v,1,1.4942760999983875,None,7,1,29,1,,,,,86.9800605000055,,86.97570700000506,86.9800605000055,87.9660867999919,87.9660867999919,87.9660867999919,87.9660867999919,87.97297600000456,88.9659329999995,88.9659329999995,90.46721829999296,v,1,1.4942760999983875,None,,,,,048011,001,2025-10-05_22h24.32.993,Motor Learning,2024.2.4,144.09388007182923,2025-10-05 22h25.27.352506 +0530,
50,c,30,2,7,c,1,1.4489201999967918,None,7,2,30,2,,,,,90.47268439999607,,90.46761399999377,90.47268439999607,91.45855700000538,91.45855700000538,91.45855700000538,91.45855700000538,91.46545600000536,92.45847640000284,92.45847640000284,93.91140670000459,c,1,1.4489201999967918,None,,,,,048011,001,2025-10-05_22h24.32.993,Motor Learning,2024.2.4,144.09388007182923,2025-10-05 22h25.27.352506 +0530,
-150,z,31,3,7,z,1,0.4457735000032699,None,7,3,31,3,,,,,93.91652470000554,,93.91181839999626,93.91652470000554,94.9025599000015,94.9025599000015,94.9025599000015,94.9025599000015,94.90954029999557,95.90241349999269,95.90241349999269,96.3561183999991,z,1,0.4457735000032699,None,,,,,048011,001,2025-10-05_22h24.32.993,Motor Learning,2024.2.4,144.09388007182923,2025-10-05 22h25.27.352506 +0530,
-50,x,32,0,8,x,1,0.5470829000114463,None,8,0,32,0,,,,,96.36058900000353,,96.35647969999991,96.36058900000353,97.34670280000137,97.34670280000137,97.34670280000137,97.34670280000137,97.35373170000094,98.34636700000556,98.34636700000556,98.89663740000105,x,1,0.5470829000114463,None,,,,,048011,001,2025-10-05_22h24.32.993,Motor Learning,2024.2.4,144.09388007182923,2025-10-05 22h25.27.352506 +0530,
150,v,33,1,8,v,1,0.804504600004293,None,8,1,33,1,,,,,98.90205059999425,,98.89700889999222,98.90205059999425,99.88796120000188,99.88796120000188,99.88796120000188,99.88796120000188,99.89488049999636,100.88782489999721,100.88782489999721,101.69499540000106,v,1,0.804504600004293,None,,,,,048011,001,2025-10-05_22h24.32.993,Motor Learning,2024.2.4,144.09388007182923,2025-10-05 22h25.27.352506 +0530,
50,c,34,2,8,c,1,0.5636880000092788,None,8,2,34,2,,,,,101.70018379999965,,101.69539649999933,101.70018379999965,102.68617600000289,102.68617600000289,102.68617600000289,102.68617600000289,102.69313630000397,103.6859553999966,103.6859553999966,104.25676220000605,c,1,0.5636880000092788,None,,,,,048011,001,2025-10-05_22h24.32.993,Motor Learning,2024.2.4,144.09388007182923,2025-10-05 22h25.27.352506 +0530,
-150,z,35,3,8,z,1,0.6260209000029135,None,8,3,35,3,,,,,104.26228409999749,,104.25713519999408,104.26228409999749,105.24817380000604,105.24817380000604,105.24817380000604,105.24817380000604,105.25508269999409,106.24878480000189,106.24878480000189,106.88199809999787,z,1,0.6260209000029135,None,,,,,048011,001,2025-10-05_22h24.32.993,Motor Learning,2024.2.4,144.09388007182923,2025-10-05 22h25.27.352506 +0530,
-50,x,36,0,9,x,1,0.7016173000010895,None,9,0,36,0,,,,,106.88676470000064,,106.88236970000435,106.88676470000064,107.87282639999466,107.87282639999466,107.87282639999466,107.87282639999466,107.87980640000023,108.87258189999557,108.87258189999557,109.57592770000338,x,1,0.7016173000010895,None,,,,,048011,001,2025-10-05_22h24.32.993,Motor Learning,2024.2.4,144.09388007182923,2025-10-05 22h25.27.352506 +0530,
150,v,37,1,9,v,1,0.6261587000044528,None,9,1,37,1,,,,,109.5809631000011,,109.57627879999927,109.5809631000011,110.56681299999764,110.56681299999764,110.56681299999764,110.56681299999764,110.57369799999287,111.56669560000591,111.56669560000591,112.19974450000154,v,1,0.6261587000044528,None,,,,,048011,001,2025-10-05_22h24.32.993,Motor Learning,2024.2.4,144.09388007182923,2025-10-05 22h25.27.352506 +0530,
50,c,38,2,9,c,1,0.5565433999872766,None,9,2,38,2,,,,,112.20561940000334,,112.20016900000337,112.20561940000334,113.19145199999912,113.19145199999912,113.19145199999912,113.19145199999912,113.19844500000181,114.19148629999836,114.19148629999836,114.75555319999694,c,1,0.5565433999872766,None,,,,,048011,001,2025-10-05_22h24.32.993,Motor Learning,2024.2.4,144.09388007182923,2025-10-05 22h25.27.352506 +0530,
-150,z,39,3,9,z,1,0.49437590000161435,None,9,3,39,3,,,,,114.76070669999172,,114.75595710000198,114.76070669999172,115.74675229999411,115.74675229999411,115.74675229999411,115.74675229999411,115.75354259999585,116.74660270000459,116.74660270000459,117.24741999999969,z,1,0.49437590000161435,None,,,,,048011,001,2025-10-05_22h24.32.993,Motor Learning,2024.2.4,144.09388007182923,2025-10-05 22h25.27.352506 +0530,
-50,x,40,0,10,x,1,0.4507233000040287,None,10,0,40,0,,,,,117.25348679999297,,117.24781669999356,117.25348679999297,118.23958929999208,118.23958929999208,118.23958929999208,118.23958929999208,118.24644610000541,119.23933719999332,119.23933719999332,119.69223729999794,x,1,0.4507233000040287,None,,,,,048011,001,2025-10-05_22h24.32.993,Motor Learning,2024.2.4,144.09388007182923,2025-10-05 22h25.27.352506 +0530,
150,v,41,1,10,v,1,1.1371998999966308,None,10,1,41,1,,,,,119.69658809999237,,119.69266859999334,119.69658809999237,120.68340019999596,120.68340019999596,120.68340019999596,120.68340019999596,120.69052089999605,121.6834186000051,121.6834186000051,122.82373419999203,v,1,1.1371998999966308,None,,,,,048011,001,2025-10-05_22h24.32.993,Motor Learning,2024.2.4,144.09388007182923,2025-10-05 22h25.27.352506 +0530,
50,c,42,2,10,c,1,0.6363467000046512,None,10,2,42,2,,,,,122.82883630000288,,122.8241202999925,122.82883630000288,123.81397859999561,123.81397859999561,123.81397859999561,123.81397859999561,123.82092709999415,124.81474079999316,124.81474079999316,125.4552154999983,c,1,0.6363467000046512,None,,,,,048011,001,2025-10-05_22h24.32.993,Motor Learning,2024.2.4,144.09388007182923,2025-10-05 22h25.27.352506 +0530,
-150,z,43,3,10,z,1,0.2980897000088589,None,10,3,43,3,,,,,125.46050839999225,,125.45561160000216,125.46050839999225,126.44637049999437,126.44637049999437,126.44637049999437,126.44637049999437,126.45361389999744,127.44616409999435,127.44616409999435,127.74620819999836,z,1,0.2980897000088589,None,,,,,048011,001,2025-10-05_22h24.32.993,Motor Learning,2024.2.4,144.09388007182923,2025-10-05 22h25.27.352506 +0530,
-50,x,44,0,11,x,1,0.46320890000788495,None,11,0,44,0,,,,,127.75199489999795,,127.74651280000398,127.75199489999795,128.7378469999967,128.7378469999967,128.7378469999967,128.7378469999967,128.74481609999202,129.73779709999508,129.73779709999508,130.2046532999957,x,1,0.46320890000788495,None,,,,,048011,001,2025-10-05_22h24.32.993,Motor Learning,2024.2.4,144.09388007182923,2025-10-05 22h25.27.352506 +0530,
150,v,45,1,11,v,1,0.639471999995294,None,11,1,45,1,,,,,130.20984349999344,,130.20507409999846,130.20984349999344,131.1957662999921,131.1957662999921,131.1957662999921,131.1957662999921,131.20285699999658,132.19569870000123,132.19569870000123,132.83700430000317,v,1,0.639471999995294,None,,,,,048011,001,2025-10-05_22h24.32.993,Motor Learning,2024.2.4,144.09388007182923,2025-10-05 22h25.27.352506 +0530,
50,c,46,2,11,c,1,0.6078719000070123,None,11,2,46,2,,,,,132.84115360000578,,132.83739929999865,132.84115360000578,133.8273371999967,133.8273371999967,133.8273371999967,133.8273371999967,133.83474649999698,134.82734139999957,134.82734139999957,135.4385772999958,c,1,0.6078719000070123,None,,,,,048011,001,2025-10-05_22h24.32.993,Motor Learning,2024.2.4,144.09388007182923,2025-10-05 22h25.27.352506 +0530,
-150,z,47,3,11,z,1,0.46437869999499526,None,11,3,47,3,,,,,135.44489769999927,,135.43877300000167,135.44489769999927,136.4311183999962,136.4311183999962,136.4311183999962,136.4311183999962,136.43806889999541,137.43113460000313,137.43113460000313,137.8981180999981,z,1,0.46437869999499526,None,,,,,048011,001,2025-10-05_22h24.32.993,Motor Learning,2024.2.4,144.09388007182923,2025-10-05 22h25.27.352506 +0530,
-50,x,48,0,12,x,1,0.3357121000008192,None,12,0,48,0,,,,,137.9032298999955,,137.89852099999553,137.9032298999955,138.88921429999755,138.88921429999755,138.88921429999755,138.88921429999755,138.8961796999938,139.88901319999422,139.88901319999422,140.23065060000226,x,1,0.3357121000008192,None,,,,,048011,001,2025-10-05_22h24.32.993,Motor Learning,2024.2.4,144.09388007182923,2025-10-05 22h25.27.352506 +0530,
150,v,49,1,12,v,1,0.3591177000052994,None,12,1,49,1,,,,,140.23631690000184,,140.2309957999969,140.23631690000184,141.222173999995,141.222173999995,141.222173999995,141.222173999995,141.22912629999337,142.22224339999957,142.22224339999957,142.58485270000529,v,1,0.3591177000052994,None,,,,,048011,001,2025-10-05_22h24.32.993,Motor Learning,2024.2.4,144.09388007182923,2025-10-05 22h25.27.352506 +0530,
50,c,50,2,12,c,1,0.2691541999956826,None,12,2,50,2,,,,,142.59010529999796,,142.58524729999772,142.59010529999796,143.57599050000135,143.57599050000135,143.57599050000135,143.57599050000135,143.5828892999998,144.57591179999872,144.57591179999872,144.84817430000112,c,1,0.2691541999956826,None,,,,,048011,001,2025-10-05_22h24.32.993,Motor Learning,2024.2.4,144.09388007182923,2025-10-05 22h25.27.352506 +0530,
-150,z,51,3,12,z,1,0.235687099993811,None,12,3,51,3,,,,,144.85352930000226,,144.84861529999762,144.85352930000226,145.83954190000077,145.83954190000077,145.83954190000077,145.83954190000077,145.84652720000304,146.8395865999919,146.8395865999919,147.07797579999897,z,1,0.235687099993811,None,,,,,048011,001,2025-10-05_22h24.32.993,Motor Learning,2024.2.4,144.09388007182923,2025-10-05 22h25.27.352506 +0530,
-50,x,52,0,13,x,1,0.23214870000083465,None,13,0,52,0,,,,,147.08239510000567,,147.07839609999792,147.08239510000567,148.0684767000057,148.0684767000057,148.0684767000057,148.0684767000057,148.07535009999992,149.0682850000012,149.0682850000012,149.30587729999388,x,1,0.23214870000083465,None,,,,,048011,001,2025-10-05_22h24.32.993,Motor Learning,2024.2.4,144.09388007182923,2025-10-05 22h25.27.352506 +0530,
150,v,53,1,13,v,1,0.3141821000026539,None,13,1,53,1,,,,,149.3112347999995,,149.3063201000041,149.3112347999995,150.2972199999931,150.2972199999931,150.2972199999931,150.2972199999931,150.304149100004,151.2969607999985,151.2969607999985,151.61786840000423,v,1,0.3141821000026539,None,,,,,048011,001,2025-10-05_22h24.32.993,Motor Learning,2024.2.4,144.09388007182923,2025-10-05 22h25.27.352506 +0530,
50,c,54,2,13,c,1,0.27326820000598673,None,13,2,54,2,,,,,151.6234123000031,,151.6182850000041,151.6234123000031,152.60945400000492,152.60945400000492,152.60945400000492,152.60945400000492,152.61649380000017,153.60930290000397,153.60930290000397,153.88868809999258,c,1,0.27326820000598673,None,,,,,048011,001,2025-10-05_22h24.32.993,Motor Learning,2024.2.4,144.09388007182923,2025-10-05 22h25.27.352506 +0530,
-150,z,55,3,13,z,1,0.42949579999549314,None,13,3,55,3,,,,,153.89384319999954,,153.8890781999944,153.89384319999954,154.87982519999787,154.87982519999787,154.87982519999787,154.87982519999787,154.88688289999845,155.87945959999342,155.87945959999342,156.31068110000342,z,1,0.42949579999549314,None,,,,,048011,001,2025-10-05_22h24.32.993,Motor Learning,2024.2.4,144.09388007182923,2025-10-05 22h25.27.352506 +0530,
-50,x,56,0,14,x,1,0.3383608000003733,None,14,0,56,0,,,,,156.31711319999886,,156.3109034999943,156.31711319999886,157.30305580000277,157.30305580000277,157.30305580000277,157.30305580000277,157.3101883999916,158.30317489999288,158.30317489999288,158.64524959999835,x,1,0.3383608000003733,None,,,,,048011,001,2025-10-05_22h24.32.993,Motor Learning,2024.2.4,144.09388007182923,2025-10-05 22h25.27.352506 +0530,
150,v,57,1,14,v,1,0.3550057999964338,None,14,1,57,1,,,,,158.6501522000035,,158.6457042999973,158.6501522000035,159.6361867999949,159.6361867999949,159.6361867999949,159.6361867999949,159.64317260000098,160.63591749999614,160.63591749999614,160.9986116999935,v,1,0.3550057999964338,None,,,,,048011,001,2025-10-05_22h24.32.993,Motor Learning,2024.2.4,144.09388007182923,2025-10-05 22h25.27.352506 +0530,
50,c,58,2,14,c,1,0.3106261000066297,None,14,2,58,2,,,,,161.00403880000522,,160.9990106000041,161.00403880000522,161.99000399999204,161.99000399999204,161.99000399999204,161.99000399999204,161.99683659999573,162.98987160000252,162.98987160000252,163.30480509999325,c,1,0.3106261000066297,None,,,,,048011,001,2025-10-05_22h24.32.993,Motor Learning,2024.2.4,144.09388007182923,2025-10-05 22h25.27.352506 +0530,
-150,z,59,3,14,z,1,0.33574499998940155,None,14,3,59,3,,,,,163.30939720000606,,163.30526300000201,163.30939720000606,164.29505649999192,164.29505649999192,164.29505649999192,164.29505649999192,164.30224619999353,165.2947606999951,165.2947606999951,165.63683819999278,z,1,0.33574499998940155,None,,,,,048011,001,2025-10-05_22h24.32.993,Motor Learning,2024.2.4,144.09388007182923,2025-10-05 22h25.27.352506 +0530,
-50,x,60,0,15,x,1,0.43092640000395477,None,15,0,60,0,,,,,165.6423075999919,,165.6372784999985,165.6423075999919,166.6280928000051,166.6280928000051,166.6280928000051,166.6280928000051,166.635134199998,167.62814240000444,167.62814240000444,168.06657619999896,x,1,0.43092640000395477,None,,,,,048011,001,2025-10-05_22h24.32.993,Motor Learning,2024.2.4,144.09388007182923,2025-10-05 22h25.27.352506 +0530,
150,v,61,1,15,v,1,0.2881748000072548,None,15,1,61,1,,,,,168.07239739999932,,168.0670359999931,168.07239739999932,169.0584138999984,169.0584138999984,169.0584138999984,169.0584138999984,169.06526859999576,170.05841359999613,170.05841359999613,170.3512264000019,v,1,0.2881748000072548,None,,,,,048011,001,2025-10-05_22h24.32.993,Motor Learning,2024.2.4,144.09388007182923,2025-10-05 22h25.27.352506 +0530,
50,c,62,2,15,c,1,0.4119767999945907,None,15,2,62,2,,,,,170.3568876999925,,170.35167289999663,170.3568876999925,171.34288060000108,171.34288060000108,171.34288060000108,171.34288060000108,171.3502002000023,172.34276109999337,172.34276109999337,172.76085399999283,c,1,0.4119767999945907,None,,,,,048011,001,2025-10-05_22h24.32.993,Motor Learning,2024.2.4,144.09388007182923,2025-10-05 22h25.27.352506 +0530,
-150,z,63,3,15,z,1,0.3482227999920724,None,15,3,63,3,,,,,172.766300400006,,172.76131560000067,172.766300400006,173.75230399999418,173.75230399999418,173.75230399999418,173.75230399999418,173.7590593000059,174.75212499999907,174.75212499999907,175.1078950999945,z,1,0.3482227999920724,None,,,,,048011,001,2025-10-05_22h24.32.993,Motor Learning,2024.2.4,144.09388007182923,2025-10-05 22h25.27.352506 +0530,
-50,x,64,0,16,x,1,0.26578889999655075,None,16,0,64,0,,,,,175.1131929999974,,175.1083304000058,175.1131929999974,176.0990327000036,176.0990327000036,176.0990327000036,176.0990327000036,176.10597899999993,177.09890850000374,177.09890850000374,177.37125739999465,x,1,0.26578889999655075,None,,,,,048011,001,2025-10-05_22h24.32.993,Motor Learning,2024.2.4,144.09388007182923,2025-10-05 22h25.27.352506 +0530,
150,v,65,1,16,v,1,0.2918677999987267,None,16,1,65,1,,,,,177.37669109999842,,177.37174249999225,177.37669109999842,178.3627448000043,178.3627448000043,178.3627448000043,178.3627448000043,178.36964960000478,179.36228289999417,179.36228289999417,179.6565627999953,v,1,0.2918677999987267,None,,,,,048011,001,2025-10-05_22h24.32.993,Motor Learning,2024.2.4,144.09388007182923,2025-10-05 22h25.27.352506 +0530,
50,c,66,2,16,c,1,0.36638619999575894,None,16,2,66,2,,,,,179.66118989999813,,179.657014299999,179.66118989999813,180.64709119999316,180.64709119999316,180.64709119999316,180.64709119999316,180.65391649999947,181.64656749999267,181.64656749999267,182.0166176999919,c,1,0.36638619999575894,None,,,,,048011,001,2025-10-05_22h24.32.993,Motor Learning,2024.2.4,144.09388007182923,2025-10-05 22h25.27.352506 +0530,
-150,z,67,3,16,z,1,0.3648074000084307,None,16,3,67,3,,,,,182.02168209999218,,182.01700110000093,182.02168209999218,183.00773139999365,183.00773139999365,183.00773139999365,183.00773139999365,183.0146492000058,184.00756319999346,184.00756319999346,184.37717350000457,z,1,0.3648074000084307,None,,,,,048011,001,2025-10-05_22h24.32.993,Motor Learning,2024.2.4,144.09388007182923,2025-10-05 22h25.27.352506 +0530,
-50,x,68,0,17,x,1,0.2983798999921419,None,17,0,68,0,,,,,184.382508900002,,184.3776388999977,184.382508900002,185.36873099999502,185.36873099999502,185.36873099999502,185.36873099999502,185.37557289999677,186.36850029999914,186.36850029999914,186.66887680000218,x,1,0.2983798999921419,None,,,,,048011,001,2025-10-05_22h24.32.993,Motor Learning,2024.2.4,144.09388007182923,2025-10-05 22h25.27.352506 +0530,
150,v,69,1,17,v,1,0.39747919999354053,None,17,1,69,1,,,,,186.67410350000137,,186.6692539999931,186.67410350000137,187.65991709999798,187.65991709999798,187.65991709999798,187.65991709999798,187.6666780999949,188.65961339999922,188.65961339999922,189.06370869999228,v,1,0.39747919999354053,None,,,,,048011,001,2025-10-05_22h24.32.993,Motor Learning,2024.2.4,144.09388007182923,2025-10-05 22h25.27.352506 +0530,
50,c,70,2,17,c,1,0.3009852000104729,None,17,2,70,2,,,,,189.06938430000446,,189.06405020000238,189.06938430000446,190.05541390000144,190.05541390000144,190.05541390000144,190.05541390000144,190.06225149999955,191.0551747999998,191.0551747999998,191.36245939999935,c,1,0.3009852000104729,None,,,,,048011,001,2025-10-05_22h24.32.993,Motor Learning,2024.2.4,144.09388007182923,2025-10-05 22h25.27.352506 +0530,
-150,z,71,3,17,z,1,0.23519510000187438,None,17,3,71,3,,,,,191.36766059999354,,191.3628827999928,191.36766059999354,192.353531700006,192.353531700006,192.353531700006,192.353531700006,192.36051480000606,193.3534151000058,193.3534151000058,193.5911216999957,z,1,0.23519510000187438,None,,,,,048011,001,2025-10-05_22h24.32.993,Motor Learning,2024.2.4,144.09388007182923,2025-10-05 22h25.27.352506 +0530,
-50,x,72,0,18,x,1,0.30437139999412466,None,18,0,72,0,,,,,193.5962858999992,,193.5914802000043,193.5962858999992,194.58237750000262,194.58237750000262,194.58237750000262,194.58237750000262,194.58964879999985,195.58231450000312,195.58231450000312,195.88991100000567,x,1,0.30437139999412466,None,,,,,048011,001,2025-10-05_22h24.32.993,Motor Learning,2024.2.4,144.09388007182923,2025-10-05 22h25.27.352506 +0530,
150,v,73,1,18,v,1,0.31798789999447763,None,18,1,73,1,,,,,195.89477810000244,,195.89032459999726,195.89477810000244,196.88083429999824,196.88083429999824,196.88083429999824,196.88083429999824,196.8878257000033,197.8806293999951,197.8806293999951,198.20185420000053,v,1,0.31798789999447763,None,,,,,048011,001,2025-10-05_22h24.32.993,Motor Learning,2024.2.4,144.09388007182923,2025-10-05 22h25.27.352506 +0530,
50,c,74,2,18,c,1,0.3380927999969572,None,18,2,74,2,,,,,198.2070032000047,,198.20227989999694,198.2070032000047,199.19305269999313,199.19305269999313,199.19305269999313,199.19305269999313,199.20006909999938,200.1928770999948,200.1928770999948,200.53480979999586,c,1,0.3380927999969572,None,,,,,048011,001,2025-10-05_22h24.32.993,Motor Learning,2024.2.4,144.09388007182923,2025-10-05 22h25.27.352506 +0530,
-150,z,75,3,18,z,1,0.34911100000317674,None,18,3,75,3,,,,,200.54000690000248,,200.53520030000072,200.54000690000248,201.52611289999913,201.52611289999913,201.52611289999913,201.52611289999913,201.53297210000164,202.52583450000384,202.52583450000384,202.88149869999324,z,1,0.34911100000317674,None,,,,,048011,001,2025-10-05_22h24.32.993,Motor Learning,2024.2.4,144.09388007182923,2025-10-05 22h25.27.352506 +0530,
-50,x,76,0,19,x,1,0.23377909998816904,None,19,0,76,0,,,,,202.88696770000388,,202.88243189999775,202.88696770000388,203.87289600000076,203.87289600000076,203.87289600000076,203.87289600000076,203.87990949999948,204.87274669999897,204.87274669999897,205.11008169999695,x,1,0.23377909998816904,None,,,,,048011,001,2025-10-05_22h24.32.993,Motor Learning,2024.2.4,144.09388007182923,2025-10-05 22h25.27.352506 +0530,
150,v,77,1,19,v,1,0.3233144999976503,None,19,1,77,1,,,,,205.11579929999425,,205.11044049999327,205.11579929999425,206.10170869999274,206.10170869999274,206.10170869999274,206.10170869999274,206.10870529999374,207.10151320000296,207.10151320000296,207.42968149999797,v,1,0.3233144999976503,None,,,,,048011,001,2025-10-05_22h24.32.993,Motor Learning,2024.2.4,144.09388007182923,2025-10-05 22h25.27.352506 +0530,
50,c,78,2,19,c,1,0.3467747000104282,None,19,2,78,2,,,,,207.43484889999672,,207.4301059999998,207.43484889999672,208.42079580000427,208.42079580000427,208.42079580000427,208.42079580000427,208.42774869999266,209.42063609999605,209.42063609999605,209.7699128999957,c,1,0.3467747000104282,None,,,,,048011,001,2025-10-05_22h24.32.993,Motor Learning,2024.2.4,144.09388007182923,2025-10-05 22h25.27.352506 +0530,
-150,z,79,3,19,z,1,0.31201160000637174,None,19,3,79,3,,,,,209.77471610000066,,209.77036059999955,209.77471610000066,210.76058410000405,210.76058410000405,210.76058410000405,210.76058410000405,210.76747959999193,211.7604594000004,211.7604594000004,212.073684899995,z,1,0.31201160000637174,None,,,,,048011,001,2025-10-05_22h24.32.993,Motor Learning,2024.2.4,144.09388007182923,2025-10-05 22h25.27.352506 +0530,
-50,x,80,0,20,x,1,0.26343700000143144,None,20,0,80,0,,,,,212.0797298999969,,212.0739556000044,212.0797298999969,213.06604370000423,213.06604370000423,213.06604370000423,213.06604370000423,213.0730157999933,214.0658478999976,214.0658478999976,214.33173859999806,x,1,0.26343700000143144,None,,,,,048011,001,2025-10-05_22h24.32.993,Motor Learning,2024.2.4,144.09388007182923,2025-10-05 22h25.27.352506 +0530,
150,v,81,1,20,v,1,0.28273049999552313,None,20,1,81,1,,,,,214.33651209999516,,214.33212069999718,214.33651209999516,215.32257669999672,215.32257669999672,215.32257669999672,215.32257669999672,215.32950189999247,216.32246060000034,216.32246060000034,216.60874290000356,v,1,0.28273049999552313,None,,,,,048011,001,2025-10-05_22h24.32.993,Motor Learning,2024.2.4,144.09388007182923,2025-10-05 22h25.27.352506 +0530,
50,c,82,2,20,c,1,0.36873600000399165,None,20,2,82,2,,,,,216.61410679999972,,216.6090269999986,216.61410679999972,217.60010989999864,217.60010989999864,217.60010989999864,217.60010989999864,217.60701629999676,218.59993729999405,218.59993729999405,218.97607429999334,c,1,0.36873600000399165,None,,,,,048011,001,2025-10-05_22h24.32.993,Motor Learning,2024.2.4,144.09388007182923,2025-10-05 22h25.27.352506 +0530,
-150,z,83,3,20,z,1,0.31495789998734836,None,20,3,83,3,,,,,218.981773099993,,218.97648870000558,218.981773099993,219.96782879999955,219.96782879999955,219.96782879999955,219.96782879999955,219.97474330000114,220.967613300003,220.967613300003,221.28804479999235,z,1,0.31495789998734836,None,,,,,048011,001,2025-10-05_22h24.32.993,Motor Learning,2024.2.4,144.09388007182923,2025-10-05 22h25.27.352506 +0530,
-50,x,84,0,21,x,1,0.22680619999300689,None,21,0,84,0,,,,,221.29393990000244,,221.2884008999972,221.29393990000244,222.27996109999367,222.27996109999367,222.27996109999367,222.27996109999367,222.28688220000186,223.2799442999967,223.2799442999967,223.51021279999986,x,1,0.22680619999300689,None,,,,,048011,001,2025-10-05_22h24.32.993,Motor Learning,2024.2.4,144.09388007182923,2025-10-05 22h25.27.352506 +0530,
150,v,85,1,21,v,1,0.32271599999512546,None,21,1,85,1,,,,,223.51573970000027,,223.5105229000037,223.51573970000027,224.50186279999616,224.50186279999616,224.50186279999616,224.50186279999616,224.50881780000054,225.50157920000493,225.50157920000493,225.82918869999412,v,1,0.32271599999512546,None,,,,,048011,001,2025-10-05_22h24.32.993,Motor Learning,2024.2.4,144.09388007182923,2025-10-05 22h25.27.352506 +0530,
50,c,86,2,21,c,1,0.34190359999774955,None,21,2,86,2,,,,,225.8350381999917,,225.8295400999923,225.8350381999917,226.82094669999788,226.82094669999788,226.82094669999788,226.82094669999788,226.82788810000056,227.82083179999609,227.82083179999609,228.1697845000017,c,1,0.34190359999774955,None,,,,,048011,001,2025-10-05_22h24.32.993,Motor Learning,2024.2.4,144.09388007182923,2025-10-05 22h25.27.352506 +0530,
-150,z,87,3,21,z,1,0.3586083999980474,None,21,3,87,3,,,,,228.17489110000315,,228.17014010000275,228.17489110000315,229.16051359999983,229.16051359999983,229.16051359999983,229.16051359999983,229.1674525999988,230.16018609999446,230.16018609999446,230.52310579999175,z,1,0.3586083999980474,None,,,,,048011,001,2025-10-05_22h24.32.993,Motor Learning,2024.2.4,144.09388007182923,2025-10-05 22h25.27.352506 +0530,
-50,x,88,0,22,x,1,0.3067518000025302,None,22,0,88,0,,,,,230.5284646999935,,230.52345259999856,230.5284646999935,231.51429429999553,231.51429429999553,231.51429429999553,231.51429429999553,231.52119879999373,232.51432960000238,232.51432960000238,232.82820049999282,x,1,0.3067518000025302,None,,,,,048011,001,2025-10-05_22h24.32.993,Motor Learning,2024.2.4,144.09388007182923,2025-10-05 22h25.27.352506 +0530,
150,v,89,1,22,v,1,0.34177379999891855,None,22,1,89,1,,,,,232.8341178999981,,232.8285482999927,232.8341178999981,233.8198762999964,233.8198762999964,233.8198762999964,233.8198762999964,233.82678390000365,234.81969609999214,234.81969609999214,235.1685157000029,v,1,0.34177379999891855,None,,,,,048011,001,2025-10-05_22h24.32.993,Motor Learning,2024.2.4,144.09388007182923,2025-10-05 22h25.27.352506 +0530,
50,c,90,2,22,c,1,0.46168730000499636,None,22,2,90,2,,,,,235.1738922999939,,235.16883640000015,235.1738922999939,236.1598651999957,236.1598651999957,236.1598651999957,236.1598651999957,236.1666816999932,237.15971300000092,237.15971300000092,237.62656839999545,c,1,0.46168730000499636,None,,,,,048011,001,2025-10-05_22h24.32.993,Motor Learning,2024.2.4,144.09388007182923,2025-10-05 22h25.27.352506 +0530,
-150,z,91,3,22,z,1,0.3445155000081286,None,22,3,91,3,,,,,237.63161799999943,,237.62693769999896,237.63161799999943,238.61784589999297,238.61784589999297,238.61784589999297,238.61784589999297,238.62448589999985,239.6176004000008,239.6176004000008,239.96642060000158,z,1,0.3445155000081286,None,,,,,048011,001,2025-10-05_22h24.32.993,Motor Learning,2024.2.4,144.09388007182923,2025-10-05 22h25.27.352506 +0530,
-50,x,92,0,23,x,1,0.28541819998645224,None,23,0,92,0,,,,,239.9717154999962,,239.9668498999963,239.9717154999962,240.95776999999362,240.95776999999362,240.95776999999362,240.95776999999362,240.96465349999198,241.95752539999376,241.95752539999376,242.25051119999262,x,1,0.28541819998645224,None,,,,,048011,001,2025-10-05_22h24.32.993,Motor Learning,2024.2.4,144.09388007182923,2025-10-05 22h25.27.352506 +0530,
150,v,93,1,23,v,1,0.45043270000314806,None,23,1,93,1,,,,,242.25620679999702,,242.2508860999951,242.25620679999702,243.24186680000275,243.24186680000275,243.24186680000275,243.24186680000275,243.24899639999785,244.24191369999608,244.24191369999608,244.6954451999918,v,1,0.45043270000314806,None,,,,,048011,001,2025-10-05_22h24.32.993,Motor Learning,2024.2.4,144.09388007182923,2025-10-05 22h25.27.352506 +0530,
50,c,94,2,23,c,1,0.33631379999860656,None,23,2,94,2,,,,,244.70004619999963,,244.6958370999928,244.70004619999963,245.686025899995,245.686025899995,245.686025899995,245.686025899995,245.6928168000013,246.68598249999923,246.68598249999923,247.02837119999458,c,1,0.33631379999860656,None,,,,,048011,001,2025-10-05_22h24.32.993,Motor Learning,2024.2.4,144.09388007182923,2025-10-05 22h25.27.352506 +0530,
-150,z,95,3,23,z,1,0.3529444000014337,None,23,3,95,3,,,,,247.03309529999387,,247.02857880000374,247.03309529999387,248.01914429999306,248.01914429999306,248.01914429999306,248.01914429999306,248.0261954000016,249.01893599999312,249.01893599999312,249.3748060999933,z,1,0.3529444000014337,None,,,,,048011,001,2025-10-05_22h24.32.993,Motor Learning,2024.2.4,144.09388007182923,2025-10-05 22h25.27.352506 +0530,
-50,x,96,0,24,x,1,0.37973059999058023,None,24,0,96,0,,,,,249.37995649999357,,249.37517020000087,249.37995649999357,250.3659372999973,250.3659372999973,250.3659372999973,250.3659372999973,250.37279029999627,251.3658859999996,251.3658859999996,251.7483901999949,x,1,0.37973059999058023,None,,,,,048011,001,2025-10-05_22h24.32.993,Motor Learning,2024.2.4,144.09388007182923,2025-10-05 22h25.27.352506 +0530,
150,v,97,1,24,v,1,0.32010479999007657,None,24,1,97,1,,,,,251.75461489999725,,251.7485938000027,251.75461489999725,252.74032810000062,252.74032810000062,252.74032810000062,252.74032810000062,252.74733209999977,253.74085980000382,253.74085980000382,254.0676162000018,v,1,0.32010479999007657,None,,,,,048011,001,2025-10-05_22h24.32.993,Motor Learning,2024.2.4,144.09388007182923,2025-10-05 22h25.27.352506 +0530,
50,c,98,2,24,c,1,0.36495399998966604,None,24,2,98,2,,,,,254.07363099999202,,254.06782250000106,254.07363099999202,255.05983040000137,255.05983040000137,255.05983040000137,255.05983040000137,255.06674219999695,256.0593419999932,256.0593419999932,256.4281803000049,c,1,0.36495399998966604,None,,,,,048011,001,2025-10-05_22h24.32.993,Motor Learning,2024.2.4,144.09388007182923,2025-10-05 22h25.27.352506 +0530,
-150,z,99,3,24,z,1,0.20015750000311527,None,24,3,99,3,,,,,256.4350698000053,,256.428396000003,256.4350698000053,257.4207425999921,257.4207425999921,257.4207425999921,257.4207425999921,257.4273233999993,258.4202765999944,258.4202765999944,258.6221491000033,z,1,0.20015750000311527,None,,,,,048011,001,2025-10-05_22h24.32.993,Motor Learning,2024.2.4,144.09388007182923,2025-10-05 22h25.27.352506 +0530,
-50,x,100,0,25,x,1,0.2664141999994172,None,25,0,100,0,,,,,258.62844549999863,,258.6223486999952,258.62844549999863,259.61463090000325,259.61463090000325,259.61463090000325,259.61463090000325,259.62170550000155,260.6146408999921,260.6146408999921,260.88587169999664,x,1,0.2664141999994172,None,,,,,048011,001,2025-10-05_22h24.32.993,Motor Learning,2024.2.4,144.09388007182923,2025-10-05 22h25.27.352506 +0530,
150,v,101,1,25,v,1,0.3203766000078758,None,25,1,101,1,,,,,260.8922123999946,,260.886082099998,260.8922123999946,261.8783365999989,261.8783365999989,261.8783365999989,261.8783365999989,261.8852254999947,262.87819629999285,262.87819629999285,263.2048896000051,v,1,0.3203766000078758,None,,,,,048011,001,2025-10-05_22h24.32.993,Motor Learning,2024.2.4,144.09388007182923,2025-10-05 22h25.27.352506 +0530,
50,c,102,2,25,c,1,0.6117935000074795,None,25,2,102,2,,,,,263.2111469999945,,263.2051108000014,263.2111469999945,264.1970832999941,264.1970832999941,264.1970832999941,264.1970832999941,264.20411839999724,265.19722719999845,265.19722719999845,265.8167212999979,c,1,0.6117935000074795,None,,,,,048011,001,2025-10-05_22h24.32.993,Motor Learning,2024.2.4,144.09388007182923,2025-10-05 22h25.27.352506 +0530,
-150,z,103,3,25,z,1,0.16840170000796206,None,25,3,103,3,,,,,265.8220830999926,,265.8171891999955,265.8220830999926,266.8082304999989,266.8082304999989,266.8082304999989,266.8082304999989,266.8151686999918,267.80794280000555,267.80794280000555,267.9830990000046,z,1,0.16840170000796206,None,,,,,048011,001,2025-10-05_22h24.32.993,Motor Learning,2024.2.4,144.09388007182923,2025-10-05 22h25.27.352506 +0530,
-50,x,104,0,26,x,1,0.2974053000070853,None,26,0,104,0,,,,,267.988434400002,,267.98345889999473,267.988434400002,268.9746077000018,268.9746077000018,268.9746077000018,268.9746077000018,268.9815557999973,269.9735210999934,269.9735210999934,270.27459380000073,x,1,0.2974053000070853,None,,,,,048011,001,2025-10-05_22h24.32.993,Motor Learning,2024.2.4,144.09388007182923,2025-10-05 22h25.27.352506 +0530,
150,v,105,1,26,v,1,1.1645964999916032,None,26,1,105,1,,,,,270.2799193999963,,270.2750734000001,270.2799193999963,271.26591519999783,271.26591519999783,271.26591519999783,271.26591519999783,271.27287369999976,272.26577030000044,272.26577030000044,273.43401850000373,v,1,1.1645964999916032,None,,,,,048011,001,2025-10-05_22h24.32.993,Motor Learning,2024.2.4,144.09388007182923,2025-10-05 22h25.27.352506 +0530,
50,c,106,2,26,c,1,1.0570932999980869,None,26,2,106,2,,,,,273.4390083000035,,273.43447130000277,273.4390083000035,274.4250255999941,274.4250255999941,274.4250255999941,274.4250255999941,274.4321373999992,275.4248876000056,275.4248876000056,276.48884059999546,c,1,1.0570932999980869,None,,,,,048011,001,2025-10-05_22h24.32.993,Motor Learning,2024.2.4,144.09388007182923,2025-10-05 22h25.27.352506 +0530,
-150,z,107,3,26,z,1,0.8780779999942752,None,26,3,107,3,,,,,276.4941579000006,,276.48938679999264,276.4941579000006,277.48022549999587,277.48022549999587,277.48022549999587,277.48022549999587,277.4872556000046,278.4802780000027,278.4802780000027,279.3636989999941,z,1,0.8780779999942752,None,,,,,048011,001,2025-10-05_22h24.32.993,Motor Learning,2024.2.4,144.09388007182923,2025-10-05 22h25.27.352506 +0530,
-50,x,108,0,27,x,1,0.4982657999935327,None,27,0,108,0,,,,,279.36867369999527,,279.36404400000174,279.36867369999527,280.3547505000024,280.3547505000024,280.3547505000024,280.3547505000024,280.3616767000058,281.35458830000425,281.35458830000425,281.85579089999374,x,1,0.4982657999935327,None,,,,,048011,001,2025-10-05_22h24.32.993,Motor Learning,2024.2.4,144.09388007182923,2025-10-05 22h25.27.352506 +0530,
150,v,109,1,27,v,1,0.6767659000033746,None,27,1,109,1,,,,,281.8614607999916,,281.85616209999716,281.8614607999916,282.8474419999984,282.8474419999984,282.8474419999984,282.8474419999984,282.8544849000027,283.84773189999396,283.84773189999396,284.5296576999972,v,1,0.6767659000033746,None,,,,,048011,001,2025-10-05_22h24.32.993,Motor Learning,2024.2.4,144.09388007182923,2025-10-05 22h25.27.352506 +0530,
50,c,110,2,27,c,1,0.33277779999480117,None,27,2,110,2,,,,,284.5346891999943,,284.5301046999957,284.5346891999943,285.5206401000032,285.5206401000032,285.5206401000032,285.5206401000032,285.5277223000012,286.52053710000473,286.52053710000473,286.85561260000395,c,1,0.33277779999480117,None,,,,,048011,001,2025-10-05_22h24.32.993,Motor Learning,2024.2.4,144.09388007182923,2025-10-05 22h25.27.352506 +0530,
-150,z,111,3,27,z,1,0.3716041000006953,None,27,3,111,3,,,,,286.86076599999797,,286.85600539999723,286.86076599999797,287.8468739999953,287.8468739999953,287.8468739999953,287.8468739999953,287.85383829999773,288.8466946999979,288.8466946999979,289.2227974999987,z,1,0.3716041000006953,None,,,,,048011,001,2025-10-05_22h24.32.993,Motor Learning,2024.2.4,144.09388007182923,2025-10-05 22h25.27.352506 +0530,
-50,x,112,0,28,x,1,0.2759432000020752,None,28,0,112,0,,,,,289.2284188000049,,289.22314899999765,289.2284188000049,290.2143847999978,290.2143847999978,290.2143847999978,290.2143847999978,290.2215661999944,291.2143881999946,291.2143881999946,291.49425760000304,x,1,0.2759432000020752,None,,,,,048011,001,2025-10-05_22h24.32.993,Motor Learning,2024.2.4,144.09388007182923,2025-10-05 22h25.27.352506 +0530,
150,v,113,1,28,v,1,0.40940709999995306,None,28,1,113,1,,,,,291.498866199996,,291.49475579999853,291.498866199996,292.4849838999944,292.4849838999944,292.4849838999944,292.4849838999944,292.49206000000413,293.48492380000243,293.48492380000243,293.8965116000036,v,1,0.40940709999995306,None,,,,,048011,001,2025-10-05_22h24.32.993,Motor Learning,2024.2.4,144.09388007182923,2025-10-05 22h25.27.352506 +0530,
50,c,114,2,28,c,1,0.26747059999615885,None,28,2,114,2,,,,,293.9013399999967,,293.8969464999973,293.9013399999967,294.8872046000033,294.8872046000033,294.8872046000033,294.8872046000033,294.89422950000153,295.88728439999977,295.88728439999977,296.159596700003,c,1,0.26747059999615885,None,,,,,048011,001,2025-10-05_22h24.32.993,Motor Learning,2024.2.4,144.09388007182923,2025-10-05 22h25.27.352506 +0530,
-150,z,115,3,28,z,1,0.29937259999860544,None,28,3,115,3,,,,,296.1650662000029,,296.1600175000058,296.1650662000029,297.1508482999925,297.1508482999925,297.1508482999925,297.1508482999925,297.15780119999545,298.15086890000384,298.15086890000384,298.45758289999503,z,1,0.29937259999860544,None,,,,,048011,001,2025-10-05_22h24.32.993,Motor Learning,2024.2.4,144.09388007182923,2025-10-05 22h25.27.352506 +0530,
-50,x,116,0,29,x,1,0.26880020000680815,None,29,0,116,0,,,,,298.46306569999433,,298.45798350000405,298.46306569999433,299.44926490000216,299.44926490000216,299.44926490000216,299.44926490000216,299.4562139000045,300.4489936000027,300.4489936000027,300.7211687999952,x,1,0.26880020000680815,None,,,,,048011,001,2025-10-05_22h24.32.993,Motor Learning,2024.2.4,144.09388007182923,2025-10-05 22h25.27.352506 +0530,
150,v,117,1,29,v,1,0.33234940000693314,None,29,1,117,1,,,,,300.7267298999941,,300.721604499995,300.7267298999941,301.7129172999994,301.7129172999994,301.7129172999994,301.7129172999994,301.7197693000053,302.71267239999725,302.71267239999725,303.0475703999982,v,1,0.33234940000693314,None,,,,,048011,001,2025-10-05_22h24.32.993,Motor Learning,2024.2.4,144.09388007182923,2025-10-05 22h25.27.352506 +0530,
50,c,118,2,29,c,1,0.40239559998735785,None,29,2,118,2,,,,,303.052835399998,,303.04796749999514,303.052835399998,304.03881569999794,304.03881569999794,304.03881569999794,304.03881569999794,304.0458581999992,305.0386626999971,305.0386626999971,305.4439061000012,c,1,0.40239559998735785,None,,,,,048011,001,2025-10-05_22h24.32.993,Motor Learning,2024.2.4,144.09388007182923,2025-10-05 22h25.27.352506 +0530,
-150,z,119,3,29,z,1,0.5543718999979319,None,29,3,119,3,,,,,305.44825869999477,,305.4442820999975,305.44825869999477,306.43424770000274,306.43424770000274,306.43424770000274,306.43424770000274,306.44115389999934,307.43415699999605,307.43415699999605,307.99126070000057,z,1,0.5543718999979319,None,,,,,048011,001,2025-10-05_22h24.32.993,Motor Learning,2024.2.4,144.09388007182923,2025-10-05 22h25.27.352506 +0530,
-50,x,120,0,30,x,1,0.2868085000081919,None,30,0,120,0,,,,,307.99653540000145,,307.99164239999664,307.99653540000145,308.9825711000012,308.9825711000012,308.9825711000012,308.9825711000012,308.98947719999705,309.9822916999983,309.9822916999983,310.27561589999823,x,1,0.2868085000081919,None,,,,,048011,001,2025-10-05_22h24.32.993,Motor Learning,2024.2.4,144.09388007182923,2025-10-05 22h25.27.352506 +0530,
150,v,121,1,30,v,1,0.2840225999971153,None,30,1,121,1,,,,,310.280895399992,,310.2760630999983,310.280895399992,311.26702139999543,311.26702139999543,311.26702139999543,311.26702139999543,311.27378289999615,312.2668410000042,312.2668410000042,312.5532530999917,v,1,0.2840225999971153,None,,,,,048011,001,2025-10-05_22h24.32.993,Motor Learning,2024.2.4,144.09388007182923,2025-10-05 22h25.27.352506 +0530,
50,c,122,2,30,c,1,0.29499049999867566,None,30,2,122,2,,,,,312.55844549999165,,312.553622499996,312.55844549999165,313.54430090000096,313.54430090000096,313.54430090000096,313.54430090000096,313.5511540000007,314.5441229999997,314.5441229999997,314.84419770000386,c,1,0.29499049999867566,None,,,,,048011,001,2025-10-05_22h24.32.993,Motor Learning,2024.2.4,144.09388007182923,2025-10-05 22h25.27.352506 +0530,
-150,z,123,3,30,z,1,0.2390148999984376,None,30,3,123,3,,,,,314.84981379999954,,314.8446457999962,314.84981379999954,315.83584820000397,315.83584820000397,315.83584820000397,315.83584820000397,315.8427614999964,316.835679900003,316.835679900003,317.0805332000018,z,1,0.2390148999984376,None,,,,,048011,001,2025-10-05_22h24.32.993,Motor Learning,2024.2.4,144.09388007182923,2025-10-05 22h25.27.352506 +0530,
-50,x,124,0,31,x,1,0.26955750001070555,None,31,0,124,0,,,,,317.08555879999767,,317.0809694999916,317.08555879999767,318.07155700000294,318.07155700000294,318.07155700000294,318.07155700000294,318.07851039999514,319.0713756000041,319.0713756000041,319.34439779999957,x,1,0.26955750001070555,None,,,,,048011,001,2025-10-05_22h24.32.993,Motor Learning,2024.2.4,144.09388007182923,2025-10-05 22h25.27.352506 +0530,
150,v,125,1,31,v,1,1.1192006000055699,None,31,1,125,1,,,,,319.34906330000376,,319.3448292999965,319.34906330000376,320.3351337000058,320.3351337000058,320.3351337000058,320.3351337000058,320.34211929999583,321.334852400003,321.334852400003,322.46119519999775,v,1,1.1192006000055699,None,,,,,048011,001,2025-10-05_22h24.32.993,Motor Learning,2024.2.4,144.09388007182923,2025-10-05 22h25.27.352506 +0530,
50,c,126,2,31,c,1,0.2856494000006933,None,31,2,126,2,,,,,322.4667155999923,,322.46155340000405,322.4667155999923,323.4527390000003,323.4527390000003,323.4527390000003,323.4527390000003,323.45960069999273,324.45262470000307,324.45262470000307,324.7454416999972,c,1,0.2856494000006933,None,,,,,048011,001,2025-10-05_22h24.32.993,Motor Learning,2024.2.4,144.09388007182923,2025-10-05 22h25.27.352506 +0530,
-150,z,127,3,31,z,1,0.0897873000067193,None,31,3,127,3,,,,,324.75105190000613,,324.7458556999918,324.75105190000613,325.73712399999204,325.73712399999204,325.73712399999204,325.73712399999204,325.74408970000513,326.7369517000043,326.7369517000043,326.82955239999865,z,1,0.0897873000067193,None,,,,,048011,001,2025-10-05_22h24.32.993,Motor Learning,2024.2.4,144.09388007182923,2025-10-05 22h25.27.352506 +0530,
-50,x,128,0,32,x,1,0.22593649999180343,None,32,0,128,0,,,,,326.8340412999969,,326.82995559999836,326.8340412999969,327.82024410000304,327.82024410000304,327.82024410000304,327.82024410000304,327.8271420999954,328.8200041999953,328.8200041999953,329.05072169999767,x,1,0.22593649999180343,None,,,,,048011,001,2025-10-05_22h24.32.993,Motor Learning,2024.2.4,144.09388007182923,2025-10-05 22h25.27.352506 +0530,
150,v,129,1,32,v,1,1.7893621000112034,None,32,1,129,1,,,,,329.0560714000021,,329.0511050999921,329.0560714000021,330.0420240999956,330.0420240999956,330.0420240999956,330.0420240999956,330.04906859999755,331.0421365999937,331.0421365999937,332.83469960000366,v,1,1.7893621000112034,None,,,,,048011,001,2025-10-05_22h24.32.993,Motor Learning,2024.2.4,144.09388007182923,2025-10-05 22h25.27.352506 +0530,
50,c,130,2,32,c,1,0.33443370000168215,None,32,2,130,2,,,,,332.84023020000313,,332.8350425999961,332.84023020000313,333.82663799999864,333.82663799999864,333.82663799999864,333.82663799999864,333.8333208999975,334.82615039999655,334.82615039999655,335.16714380000485,c,1,0.33443370000168215,None,,,,,048011,001,2025-10-05_22h24.32.993,Motor Learning,2024.2.4,144.09388007182923,2025-10-05 22h25.27.352506 +0530,
-150,z,131,3,32,z,1,0.381191199994646,None,32,3,131,3,,,,,335.173066000003,,335.16744910000125,335.173066000003,336.159396300005,336.159396300005,336.159396300005,336.159396300005,336.166037899995,337.1592540999991,337.1592540999991,337.54261889999907,z,1,0.381191199994646,None,,,,,048011,001,2025-10-05_22h24.32.993,Motor Learning,2024.2.4,144.09388007182923,2025-10-05 22h25.27.352506 +0530,
-50,x,132,0,33,x,1,0.36738619999960065,None,33,0,132,0,,,,,337.5477971999935,,337.5429981000052,337.5477971999935,338.5338825999934,338.5338825999934,338.5338825999934,338.5338825999934,338.54072180000367,339.5337478000001,339.5337478000001,339.90359400000307,x,1,0.36738619999960065,None,,,,,048011,001,2025-10-05_22h24.32.993,Motor Learning,2024.2.4,144.09388007182923,2025-10-05 22h25.27.352506 +0530,
150,v,133,1,33,v,1,0.5239117999881273,None,33,1,133,1,,,,,339.90861790000054,,339.90393980000226,339.90861790000054,340.894581799992,340.894581799992,340.894581799992,340.894581799992,340.9015556999948,341.89475890000176,341.89475890000176,342.42365129999234,v,1,0.5239117999881273,None,,,,,048011,001,2025-10-05_22h24.32.993,Motor Learning,2024.2.4,144.09388007182923,2025-10-05 22h25.27.352506 +0530,
50,c,134,2,33,c,1,0.3166675000102259,None,33,2,134,2,,,,,342.42899139999645,,342.42411419999553,342.42899139999645,343.41509470000165,343.41509470000165,343.41509470000165,343.41509470000165,343.4230463999993,344.4150006999989,344.4150006999989,344.73612180000055,c,1,0.3166675000102259,None,,,,,048011,001,2025-10-05_22h24.32.993,Motor Learning,2024.2.4,144.09388007182923,2025-10-05 22h25.27.352506 +0530,
-150,z,135,3,33,z,1,0.3950842000049306,None,33,3,135,3,,,,,344.741337200001,,344.73650529999577,344.741337200001,345.72705109999515,345.72705109999515,345.72705109999515,345.72705109999515,345.734149099997,346.7271047999966,346.7271047999966,347.1233629000053,z,1,0.3950842000049306,None,,,,,048011,001,2025-10-05_22h24.32.993,Motor Learning,2024.2.4,144.09388007182923,2025-10-05 22h25.27.352506 +0530,
-50,x,136,0,34,x,1,0.3240183000016259,None,34,0,136,0,,,,,347.12972670000454,,347.1239423999941,347.12972670000454,348.1157355000032,348.1157355000032,348.1157355000032,348.1157355000032,348.1226317999972,349.1156583999982,349.1156583999982,349.44307259999914,x,1,0.3240183000016259,None,,,,,048011,001,2025-10-05_22h24.32.993,Motor Learning,2024.2.4,144.09388007182923,2025-10-05 22h25.27.352506 +0530,
150,v,137,1,34,v,1,2.1120936999941478,None,34,1,137,1,,,,,349.448844700004,,349.4434936000034,349.448844700004,350.43479440000374,350.43479440000374,350.43479440000374,350.43479440000374,350.4417895999941,351.43473419999646,351.43473419999646,353.55362399999285,v,1,2.1120936999941478,None,,,,,048011,001,2025-10-05_22h24.32.993,Motor Learning,2024.2.4,144.09388007182923,2025-10-05 22h25.27.352506 +0530,
50,c,138,2,34,c,1,0.3413944000058109,None,34,2,138,2,,,,,353.5594393999927,,353.55460350000067,353.5594393999927,354.5454516000027,354.5454516000027,354.5454516000027,354.5454516000027,354.55228770000394,355.5453484000027,355.5453484000027,355.8940533999994,c,1,0.3413944000058109,None,,,,,048011,001,2025-10-05_22h24.32.993,Motor Learning,2024.2.4,144.09388007182923,2025-10-05 22h25.27.352506 +0530,
-150,z,139,3,34,z,1,0.3053572000062559,None,34,3,139,3,,,,,355.89942089999386,,355.8944116000057,355.89942089999386,356.88536040000326,356.88536040000326,356.88536040000326,356.88536040000326,356.89227769999707,357.8850856999925,357.8850856999925,358.1919048999989,z,1,0.3053572000062559,None,,,,,048011,001,2025-10-05_22h24.32.993,Motor Learning,2024.2.4,144.09388007182923,2025-10-05 22h25.27.352506 +0530,
-50,x,140,0,35,x,1,0.2840159000043059,None,35,0,140,0,,,,,358.19768929999555,,358.1922457000037,358.19768929999555,359.1836624999996,359.1836624999996,359.1836624999996,359.1836624999996,359.19059050000214,360.18337519999477,360.18337519999477,360.4697785000026,x,1,0.2840159000043059,None,,,,,048011,001,2025-10-05_22h24.32.993,Motor Learning,2024.2.4,144.09388007182923,2025-10-05 22h25.27.352506 +0530,
150,v,141,1,35,v,1,0.6503535999945598,None,35,1,141,1,,,,,360.4757208999945,,360.47017020000203,360.4757208999945,361.4610720000055,361.4610720000055,361.4610720000055,361.4610720000055,361.4689900999947,362.4608601999935,362.4608601999935,363.11690569999337,v,1,0.6503535999945598,None,,,,,048011,001,2025-10-05_22h24.32.993,Motor Learning,2024.2.4,144.09388007182923,2025-10-05 22h25.27.352506 +0530,
50,c,142,2,35,c,1,0.27385359999607317,None,35,2,142,2,,,,,363.1214089999994,,363.11738409999816,363.1214089999994,364.1064824999921,364.1064824999921,364.1064824999921,364.1064824999921,364.1135801999917,365.1063764999999,365.1063764999999,365.38584190000256,c,1,0.27385359999607317,None,,,,,048011,001,2025-10-05_22h24.32.993,Motor Learning,2024.2.4,144.09388007182923,2025-10-05 22h25.27.352506 +0530,
-150,z,143,3,35,z,1,0.3095194000052288,None,35,3,143,3,,,,,365.3909937999997,,365.3862730999972,365.3909937999997,366.37708000000566,366.37708000000566,366.37708000000566,366.37708000000566,366.3838898999966,367.37684110000555,367.37684110000555,367.6908814000053,z,1,0.3095194000052288,None,,,,,048011,001,2025-10-05_22h24.32.993,Motor Learning,2024.2.4,144.09388007182923,2025-10-05 22h25.27.352506 +0530,
-50,x,144,0,36,x,1,0.4423666999937268,None,36,0,144,0,,,,,367.69596779999847,,367.69132779999927,367.69596779999847,368.68234260000463,368.68234260000463,368.68234260000463,368.68234260000463,368.6892506000004,369.68206039999495,369.68206039999495,370.12825789999624,x,1,0.4423666999937268,None,,,,,048011,001,2025-10-05_22h24.32.993,Motor Learning,2024.2.4,144.09388007182923,2025-10-05 22h25.27.352506 +0530,
150,v,145,1,36,v,1,0.38985669999965467,None,36,1,145,1,,,,,370.1333206999989,,370.12859979999484,370.1333206999989,371.1193509000004,371.1193509000004,371.1193509000004,371.1193509000004,371.12633919999644,372.1195393999951,372.1195393999951,372.51633830000355,v,1,0.38985669999965467,None,,,,,048011,001,2025-10-05_22h24.32.993,Motor Learning,2024.2.4,144.09388007182923,2025-10-05 22h25.27.352506 +0530,
50,c,146,2,36,c,1,0.3132636999944225,None,36,2,146,2,,,,,372.5217610999971,,372.516710099997,372.5217610999971,373.5080431999959,373.5080431999959,373.5080431999959,373.5080431999959,373.5148709000059,374.5076717000047,374.5076717000047,374.8283672999969,c,1,0.3132636999944225,None,,,,,048011,001,2025-10-05_22h24.32.993,Motor Learning,2024.2.4,144.09388007182923,2025-10-05 22h25.27.352506 +0530,
-150,z,147,3,36,z,1,0.3231663999904413,None,36,3,147,3,,,,,374.83413909999945,,374.82880420000583,374.83413909999945,375.8200915000052,375.8200915000052,375.8200915000052,375.8200915000052,375.82709249999607,376.81998620000377,376.81998620000377,377.14809380000224,z,1,0.3231663999904413,None,,,,,048011,001,2025-10-05_22h24.32.993,Motor Learning,2024.2.4,144.09388007182923,2025-10-05 22h25.27.352506 +0530,
-50,x,148,0,37,x,1,0.2696309000020847,None,37,0,148,0,,,,,377.1531166999921,,377.1485249999969,377.1531166999921,378.1392068999994,378.1392068999994,378.1392068999994,378.1392068999994,378.14621589999297,379.1388214000035,379.1388214000035,379.41124950000085,x,1,0.2696309000020847,None,,,,,048011,001,2025-10-05_22h24.32.993,Motor Learning,2024.2.4,144.09388007182923,2025-10-05 22h25.27.352506 +0530,
150,v,149,1,37,v,1,0.284306600005948,None,37,1,149,1,,,,,379.41682220000075,,379.4116162999999,379.41682220000075,380.4026288000023,380.4026288000023,380.4026288000023,380.4026288000023,380.409593999997,381.40267729999323,381.40267729999323,381.68939080000564,v,1,0.284306600005948,None,,,,,048011,001,2025-10-05_22h24.32.993,Motor Learning,2024.2.4,144.09388007182923,2025-10-05 22h25.27.352506 +0530,
50,c,150,2,37,c,1,0.32528150000143796,None,37,2,150,2,,,,,381.6942832999921,,381.689801799992,381.6942832999921,382.6802422000037,382.6802422000037,382.6802422000037,382.6802422000037,382.68723399999726,383.6801063000021,383.6801063000021,384.00802540000586,c,1,0.32528150000143796,None,,,,,048011,001,2025-10-05_22h24.32.993,Motor Learning,2024.2.4,144.09388007182923,2025-10-05 22h25.27.352506 +0530,
-150,z,151,3,37,z,1,0.3858053000003565,None,37,3,151,3,,,,,384.0132287000015,,384.00843659999373,384.0132287000015,384.9995205000014,384.9995205000014,384.9995205000014,384.9995205000014,385.00623869999254,385.99910129999625,385.99910129999625,386.389451199997,z,1,0.3858053000003565,None,,,,,048011,001,2025-10-05_22h24.32.993,Motor Learning,2024.2.4,144.09388007182923,2025-10-05 22h25.27.352506 +0530,
-50,x,152,0,38,x,1,0.28338150000490714,None,38,0,152,0,,,,,386.3949273000035,,386.38988279999467,386.3949273000035,387.38092670000333,387.38092670000333,387.38092670000333,387.38092670000333,387.3878171999968,388.38077849999536,388.38077849999536,388.66728039999725,x,1,0.28338150000490714,None,,,,,048011,001,2025-10-05_22h24.32.993,Motor Learning,2024.2.4,144.09388007182923,2025-10-05 22h25.27.352506 +0530,
150,v,153,1,38,v,1,0.7670479000080377,None,38,1,153,1,,,,,388.6723992000043,,388.66770609999367,388.6723992000043,389.6584067999938,389.6584067999938,389.6584067999938,389.6584067999938,389.6653037999931,390.657947700005,390.657947700005,391.4302424000052,v,1,0.7670479000080377,None,,,,,048011,001,2025-10-05_22h24.32.993,Motor Learning,2024.2.4,144.09388007182923,2025-10-05 22h25.27.352506 +0530,
50,c,154,2,38,c,1,0.455714399999124,None,38,2,154,2,,,,,391.4358188000042,,391.4306050000014,391.4358188000042,392.42176250000193,392.42176250000193,392.42176250000193,392.42176250000193,392.4287709999917,393.421809499996,393.421809499996,393.8817924000032,c,1,0.455714399999124,None,,,,,048011,001,2025-10-05_22h24.32.993,Motor Learning,2024.2.4,144.09388007182923,2025-10-05 22h25.27.352506 +0530,
-150,z,155,3,38,z,1,0.32558169998810627,None,38,3,155,3,,,,,393.88672110000334,,393.8822108000022,393.88672110000334,394.87288130000525,394.87288130000525,394.87288130000525,394.87288130000525,394.87980609999795,395.87283520000346,395.87283520000346,396.2015193999978,z,1,0.32558169998810627,None,,,,,048011,001,2025-10-05_22h24.32.993,Motor Learning,2024.2.4,144.09388007182923,2025-10-05 22h25.27.352506 +0530,
-50,x,156,0,39,x,1,0.27950019999116194,None,39,0,156,0,,,,,396.20583869999973,,396.20196540000325,396.20583869999973,397.1919796000002,397.1919796000002,397.1919796000002,397.1919796000002,397.19887059999746,398.19201030000113,398.19201030000113,398.47789029999694,x,1,0.27950019999116194,None,,,,,048011,001,2025-10-05_22h24.32.993,Motor Learning,2024.2.4,144.09388007182923,2025-10-05 22h25.27.352506 +0530,
150,v,157,1,39,v,1,0.2958593999937875,None,39,1,157,1,,,,,398.48345109999354,,398.4782727999991,398.48345109999354,399.4694126999966,399.4694126999966,399.4694126999966,399.4694126999966,399.47635280000395,400.46931349999795,400.46931349999795,400.76932710000256,v,1,0.2958593999937875,None,,,,,048011,001,2025-10-05_22h24.32.993,Motor Learning,2024.2.4,144.09388007182923,2025-10-05 22h25.27.352506 +0530,
50,c,158,2,39,c,1,0.1981969000044046,None,39,2,158,2,,,,,400.77465089999896,,400.7697219999973,400.77465089999896,401.76072629999544,401.76072629999544,401.76072629999544,401.76072629999544,401.7677249999979,402.76053729999694,402.76053729999694,402.9636010999966,c,1,0.1981969000044046,None,,,,,048011,001,2025-10-05_22h24.32.993,Motor Learning,2024.2.4,144.09388007182923,2025-10-05 22h25.27.352506 +0530,
-150,z,159,3,39,z,1,0.42294269999547396,None,39,3,159,3,,,,,402.9687869000045,,402.9639903999923,402.9687869000045,403.95501399999193,403.95501399999193,403.95501399999193,403.95501399999193,403.96195699999225,404.9547898000019,404.9547898000019,405.3800992000033,z,1,0.42294269999547396,None,,,,,048011,001,2025-10-05_22h24.32.993,Motor Learning,2024.2.4,144.09388007182923,2025-10-05 22h25.27.352506 +0530,
-50,x,160,0,40,x,1,0.08291559999634046,None,40,0,160,0,,,,,405.38521979999496,,405.38049850000243,405.38521979999496,406.3712994999951,406.3712994999951,406.3712994999951,406.3712994999951,406.37851840000076,407.37093129999994,407.37093129999994,407.45612259999325,x,1,0.08291559999634046,None,,,,,048011,001,2025-10-05_22h24.32.993,Motor Learning,2024.2.4,144.09388007182923,2025-10-05 22h25.27.352506 +0530,
150,v,161,1,40,v,1,0.6605861999996705,None,40,1,161,1,,,,,407.4612832999992,,407.4564795000042,407.4612832999992,408.4471529000002,408.4471529000002,408.4471529000002,408.4471529000002,408.4543862999999,409.447221800001,409.447221800001,410.11492619999626,v,1,0.6605861999996705,None,,,,,048011,001,2025-10-05_22h24.32.993,Motor Learning,2024.2.4,144.09388007182923,2025-10-05 22h25.27.352506 +0530,
50,c,162,2,40,c,1,0.5664594000118086,None,40,2,162,2,,,,,410.1208040000056,,410.1152929999953,410.1208040000056,411.1067339000001,411.1067339000001,411.1067339000001,411.1067339000001,411.11345370000345,412.1064953000023,412.1064953000023,412.67740179999964,c,1,0.5664594000118086,None,,,,,048011,001,2025-10-05_22h24.32.993,Motor Learning,2024.2.4,144.09388007182923,2025-10-05 22h25.27.352506 +0530,
-150,z,163,3,40,z,1,0.4178803000104381,None,40,3,163,3,,,,,412.68286099999386,,412.67784249999386,412.68286099999386,413.66870460000064,413.66870460000064,413.66870460000064,413.66870460000064,413.6755895999959,414.6688145999942,414.6688145999942,415.0932501000061,z,1,0.4178803000104381,None,,,,,048011,001,2025-10-05_22h24.32.993,Motor Learning,2024.2.4,144.09388007182923,2025-10-05 22h25.27.352506 +0530,
-50,x,164,0,41,x,1,0.41574470000341535,None,41,0,164,0,,,,,415.09904649999226,,415.093584599992,415.09904649999226,416.0848737000051,416.0848737000051,416.0848737000051,416.0848737000051,416.091960699996,417.08480450000206,417.08480450000206,417.50329399999464,x,1,0.41574470000341535,None,,,,,048011,001,2025-10-05_22h24.32.993,Motor Learning,2024.2.4,144.09388007182923,2025-10-05 22h25.27.352506 +0530,
150,v,165,1,41,v,1,0.4114263999945251,None,41,1,165,1,,,,,417.5083961000055,,417.5036343999964,417.5083961000055,418.49445739999646,418.49445739999646,418.49445739999646,418.49445739999646,418.5012676000042,419.4943146000005,419.4943146000005,419.9121199999936,v,1,0.4114263999945251,None,,,,,048011,001,2025-10-05_22h24.32.993,Motor Learning,2024.2.4,144.09388007182923,2025-10-05 22h25.27.352506 +0530,
50,c,166,2,41,c,1,0.2650102000043262,None,41,2,166,2,,,,,419.9178457999951,,419.9125090000016,419.9178457999951,420.90392519999295,420.90392519999295,420.90392519999295,420.90392519999295,420.9108122000034,421.90363210000214,421.90363210000214,422.1758469000051,c,1,0.2650102000043262,None,,,,,048011,001,2025-10-05_22h24.32.993,Motor Learning,2024.2.4,144.09388007182923,2025-10-05 22h25.27.352506 +0530,
-150,z,167,3,41,z,1,0.37788840000575874,None,41,3,167,3,,,,,422.1812418000045,,422.1763104999991,422.1812418000045,423.1673903000046,423.1673903000046,423.1673903000046,423.1673903000046,423.17415299999993,424.1671866999968,424.1671866999968,424.55025630000455,z,1,0.37788840000575874,None,,,,,048011,001,2025-10-05_22h24.32.993,Motor Learning,2024.2.4,144.09388007182923,2025-10-05 22h25.27.352506 +0530,
-50,x,168,0,42,x,1,0.41613280000456143,None,42,0,168,0,,,,,424.5558835999982,,424.5507054000045,424.5558835999982,425.5420187999989,425.5420187999989,425.5420187999989,425.5420187999989,425.5489480999968,426.5418229999923,426.5418229999923,426.96042750000197,x,1,0.41613280000456143,None,,,,,048011,001,2025-10-05_22h24.32.993,Motor Learning,2024.2.4,144.09388007182923,2025-10-05 22h25.27.352506 +0530,
150,v,169,1,42,v,1,0.6823028000071645,None,42,1,169,1,,,,,426.96537170000374,,426.9608361999999,426.96537170000374,427.9514419000043,427.9514419000043,427.9514419000043,427.9514419000043,427.95830399999977,428.951229600003,428.951229600003,429.64050639999914,v,1,0.6823028000071645,None,,,,,048011,001,2025-10-05_22h24.32.993,Motor Learning,2024.2.4,144.09388007182923,2025-10-05 22h25.27.352506 +0530,
50,c,170,2,42,c,1,0.40271300000313204,None,42,2,170,2,,,,,429.64539779999177,,429.64087829999335,429.64539779999177,430.6316231999954,430.6316231999954,430.6316231999954,430.6316231999954,430.6386027999979,431.6314207999967,431.6314207999967,432.03605080000125,c,1,0.40271300000313204,None,,,,,048011,001,2025-10-05_22h24.32.993,Motor Learning,2024.2.4,144.09388007182923,2025-10-05 22h25.27.352506 +0530,
-150,z,171,3,42,z,1,0.5573176000034437,None,42,3,171,3,,,,,432.04107069999736,,432.03646239999216,432.04107069999736,433.02716879999207,433.02716879999207,433.02716879999207,433.02716879999207,433.0341322000022,434.02687760000117,434.02687760000117,434.5910079000023,z,1,0.5573176000034437,None,,,,,048011,001,2025-10-05_22h24.32.993,Motor Learning,2024.2.4,144.09388007182923,2025-10-05 22h25.27.352506 +0530,
-50,x,172,0,43,x,1,0.26363539999874774,None,43,0,172,0,,,,,434.596326999992,,434.59142040000006,434.596326999992,435.5823497999954,435.5823497999954,435.5823497999954,435.5823497999954,435.5893109000026,436.5821634000022,436.5821634000022,436.8482978999964,x,1,0.26363539999874774,None,,,,,048011,001,2025-10-05_22h24.32.993,Motor Learning,2024.2.4,144.09388007182923,2025-10-05 22h25.27.352506 +0530,
150,v,173,1,43,v,1,0.5670936000096845,None,43,1,173,1,,,,,436.8529569999955,,436.84870539999974,436.8529569999955,437.83897779999825,437.83897779999825,437.83897779999825,437.83897779999825,437.84593080000195,438.83888149999257,438.83888149999257,439.4097747000051,v,1,0.5670936000096845,None,,,,,048011,001,2025-10-05_22h24.32.993,Motor Learning,2024.2.4,144.09388007182923,2025-10-05 22h25.27.352506 +0530,
50,c,174,2,43,c,1,0.40246110000589397,None,43,2,174,2,,,,,439.4151927000057,,439.4101915999927,439.4151927000057,440.40107530000387,440.40107530000387,440.40107530000387,440.40107530000387,440.40805679999175,441.40091889999167,441.40091889999167,441.80591120000463,c,1,0.40246110000589397,None,,,,,048011,001,2025-10-05_22h24.32.993,Motor Learning,2024.2.4,144.09388007182923,2025-10-05 22h25.27.352506 +0530,
-150,z,175,3,43,z,1,3.2533276000031037,None,43,3,175,3,,,,,441.81055280000146,,441.8062970000028,441.81055280000146,442.7965650999977,442.7965650999977,442.7965650999977,442.7965650999977,442.80356450000545,443.7964589000039,443.7964589000039,447.05441620000056,z,1,3.2533276000031037,None,,,,,048011,001,2025-10-05_22h24.32.993,Motor Learning,2024.2.4,144.09388007182923,2025-10-05 22h25.27.352506 +0530,
-50,x,176,0,44,x,1,6.058721499997773,None,44,0,176,0,,,,,447.0598822000029,,447.05485770000087,447.0598822000029,448.04603620000125,448.04603620000125,448.04603620000125,448.04603620000125,448.05279190000147,449.0456620000041,449.0456620000041,455.1086743000051,x,1,6.058721499997773,None,,,,,048011,001,2025-10-05_22h24.32.993,Motor Learning,2024.2.4,144.09388007182923,2025-10-05 22h25.27.352506 +0530,
150,v,177,1,44,v,1,1.9695841999928234,None,44,1,177,1,,,,,455.1141834000009,,455.10901469999226,455.1141834000009,456.10020060000534,456.10020060000534,456.10020060000534,456.10020060000534,456.1071682000038,457.09996890000184,457.09996890000184,459.07326429999375,v,1,1.9695841999928234,None,,,,,048011,001,2025-10-05_22h24.32.993,Motor Learning,2024.2.4,144.09388007182923,2025-10-05 22h25.27.352506 +0530,
50,c,178,2,44,c,1,0.036172699998132885,None,44,2,178,2,,,,,459.07890409999527,,459.07374219999474,459.07890409999527,460.06498110000393,460.06498110000393,460.06498110000393,460.06498110000393,460.0718416000018,461.0646463000012,461.0646463000012,461.1079155000043,c,1,0.036172699998132885,None,,,,,048011,001,2025-10-05_22h24.32.993,Motor Learning,2024.2.4,144.09388007182923,2025-10-05 22h25.27.352506 +0530,
-150,z,179,3,44,z,1,0.5103437999932794,None,44,3,179,3,,,,,461.1133785999991,,461.1082922999922,461.1133785999991,462.09929739999643,462.09929739999643,462.09929739999643,462.09929739999643,462.1062494999933,463.0991823999939,463.0991823999939,463.6148431000038,z,1,0.5103437999932794,None,,,,,048011,001,2025-10-05_22h24.32.993,Motor Learning,2024.2.4,144.09388007182923,2025-10-05 22h25.27.352506 +0530,
-50,x,180,0,45,x,1,1.1300755999982357,None,45,0,180,0,,,,,463.61992640000244,,463.61528779999935,463.61992640000244,464.6058484999958,464.6058484999958,464.6058484999958,464.6058484999958,464.61301020000246,465.6064352999965,465.6064352999965,466.73912060000293,x,1,1.1300755999982357,None,,,,,048011,001,2025-10-05_22h24.32.993,Motor Learning,2024.2.4,144.09388007182923,2025-10-05 22h25.27.352506 +0530,
150,v,181,1,45,v,1,0.6832359999971231,None,45,1,181,1,,,,,466.74446639999223,,466.7395230999973,466.74446639999223,467.7301976000017,467.7301976000017,467.7301976000017,467.7301976000017,467.73735149999266,468.7302534000046,468.7302534000046,469.41902319999645,v,1,0.6832359999971231,None,,,,,048011,001,2025-10-05_22h24.32.993,Motor Learning,2024.2.4,144.09388007182923,2025-10-05 22h25.27.352506 +0530,
50,c,182,2,45,c,1,0.44739669999398757,None,45,2,182,2,,,,,469.42458550000447,,469.4194614000007,469.42458550000447,470.4105152999982,470.4105152999982,470.4105152999982,470.4105152999982,470.4174522999965,471.41039190000447,471.41039190000447,471.8632864999963,c,1,0.44739669999398757,None,,,,,048011,001,2025-10-05_22h24.32.993,Motor Learning,2024.2.4,144.09388007182923,2025-10-05 22h25.27.352506 +0530,
-150,z,183,3,45,z,1,0.3094732000026852,None,45,3,183,3,,,,,471.86862799999653,,471.8636833000055,471.86862799999653,472.85460109999985,472.85460109999985,472.85460109999985,472.85460109999985,472.8615497999999,473.85450099999434,473.85450099999434,474.1683931000007,z,1,0.3094732000026852,None,,,,,048011,001,2025-10-05_22h24.32.993,Motor Learning,2024.2.4,144.09388007182923,2025-10-05 22h25.27.352506 +0530,
-50,x,184,0,46,x,1,0.3460565999994287,None,46,0,184,0,,,,,474.17378830000234,,474.16950109999743,474.17378830000234,475.1598503999994,475.1598503999994,475.1598503999994,475.1598503999994,475.16680530000303,476.1598374000023,476.1598374000023,476.5087477000052,x,1,0.3460565999994287,None,,,,,048011,001,2025-10-05_22h24.32.993,Motor Learning,2024.2.4,144.09388007182923,2025-10-05 22h25.27.352506 +0530,
150,v,185,1,46,v,1,0.3893050000042422,None,46,1,185,1,,,,,476.5139397000021,,476.5092241999955,476.5139397000021,477.49983440000506,477.49983440000506,477.49983440000506,477.49983440000506,477.5068125999969,478.49971099999675,478.49971099999675,478.8904356999992,v,1,0.3893050000042422,None,,,,,048011,001,2025-10-05_22h24.32.993,Motor Learning,2024.2.4,144.09388007182923,2025-10-05 22h25.27.352506 +0530,
50,c,186,2,46,c,1,0.2661194999964209,None,46,2,186,2,,,,,478.895148399999,,478.8907851999975,478.895148399999,479.8814219000051,479.8814219000051,479.8814219000051,479.8814219000051,479.8886629000044,480.8810936999944,480.8810936999944,481.15387439999904,c,1,0.2661194999964209,None,,,,,048011,001,2025-10-05_22h24.32.993,Motor Learning,2024.2.4,144.09388007182923,2025-10-05 22h25.27.352506 +0530,
-150,z,187,3,46,z,1,0.30104140000185,None,46,3,187,3,,,,,481.1589309999981,,481.15425099999993,481.1589309999981,482.14490379999916,482.14490379999916,482.14490379999916,482.14490379999916,482.1520038000017,483.1447391999973,483.1447391999973,483.45200150000164,z,1,0.30104140000185,None,,,,,048011,001,2025-10-05_22h24.32.993,Motor Learning,2024.2.4,144.09388007182923,2025-10-05 22h25.27.352506 +0530,
-50,x,188,0,47,x,1,0.25672839999606367,None,47,0,188,0,,,,,483.457347699994,,483.45244350000576,483.457347699994,484.4432175999973,484.4432175999973,484.4432175999973,484.4432175999973,484.4502843999944,485.4430352999916,485.4430352999916,485.701504800003,x,1,0.25672839999606367,None,,,,,048011,001,2025-10-05_22h24.32.993,Motor Learning,2024.2.4,144.09388007182923,2025-10-05 22h25.27.352506 +0530,
150,v,189,1,47,v,1,1.10847060001106,None,47,1,189,1,,,,,485.7069383000053,,485.70201239999733,485.7069383000053,486.69300909999583,486.69300909999583,486.69300909999583,486.69300909999583,486.69982799999707,487.69279420000385,487.69279420000385,488.8052930999984,v,1,1.10847060001106,None,,,,,048011,001,2025-10-05_22h24.32.993,Motor Learning,2024.2.4,144.09388007182923,2025-10-05 22h25.27.352506 +0530,
50,c,190,2,47,c,1,0.28266339999390766,None,47,2,190,2,,,,,488.8106595999998,,488.8057056999969,488.8106595999998,489.79670839999744,489.79670839999744,489.79670839999744,489.79670839999744,489.8037458000035,490.7966191000014,490.7966191000014,491.0823676,c,1,0.28266339999390766,None,,,,,048011,001,2025-10-05_22h24.32.993,Motor Learning,2024.2.4,144.09388007182923,2025-10-05 22h25.27.352506 +0530,
-150,z,191,3,47,z,1,0.2977262000058545,None,47,3,191,3,,,,,491.08805560000474,,491.0828518000053,491.08805560000474,492.0739154000039,492.0739154000039,492.0739154000039,492.0739154000039,492.08105209999485,493.07404520000273,493.07404520000273,493.3744632000016,z,1,0.2977262000058545,None,,,,,048011,001,2025-10-05_22h24.32.993,Motor Learning,2024.2.4,144.09388007182923,2025-10-05 22h25.27.352506 +0530,
-50,x,192,0,48,x,1,0.292013099999167,None,48,0,192,0,,,,,493.379314299993,,493.3748842000059,493.379314299993,494.36539160000393,494.36539160000393,494.36539160000393,494.36539160000393,494.3723675999936,495.36531280000054,495.36531280000054,495.65951810000115,x,1,0.292013099999167,None,,,,,048011,001,2025-10-05_22h24.32.993,Motor Learning,2024.2.4,144.09388007182923,2025-10-05 22h25.27.352506 +0530,
150,v,193,1,48,v,1,0.41814190000877716,None,48,1,193,1,,,,,495.6640575999918,,495.65996299999824,495.6640575999918,496.650046499999,496.650046499999,496.650046499999,496.650046499999,496.6565486000036,497.6494946000021,497.6494946000021,498.07473399999435,v,1,0.41814190000877716,None,,,,,048011,001,2025-10-05_22h24.32.993,Motor Learning,2024.2.4,144.09388007182923,2025-10-05 22h25.27.352506 +0530,
50,c,194,2,48,v,0,0.7082003999967128,None,48,2,194,2,,,,,498.08015650000016,,498.0750631999981,498.08015650000016,499.06632319999335,499.06632319999335,499.06632319999335,499.06632319999335,499.07308859999466,500.06599439999263,500.06599439999263,500.776251599993,v,0,0.7082003999967128,None,,,,,048011,001,2025-10-05_22h24.32.993,Motor Learning,2024.2.4,144.09388007182923,2025-10-05 22h25.27.352506 +0530,
-150,z,195,3,48,z,1,0.792915300000459,None,48,3,195,3,,,,,500.7810867999942,,500.77668870000343,500.7810867999942,501.76702139999543,501.76702139999543,501.76702139999543,501.76702139999543,501.7741087000031,502.7668810000032,502.7668810000032,503.5670400999952,z,1,0.792915300000459,None,,,,,048011,001,2025-10-05_22h24.32.993,Motor Learning,2024.2.4,144.09388007182923,2025-10-05 22h25.27.352506 +0530,
-50,x,196,0,49,x,1,2.936060499996529,None,49,0,196,0,,,,,503.5723255000048,,503.56739739999466,503.5723255000048,504.55828749999637,504.55828749999637,504.55828749999637,504.55828749999637,504.56527300000016,505.55821459999424,505.55821459999424,508.497403699992,x,1,2.936060499996529,None,,,,,048011,001,2025-10-05_22h24.32.993,Motor Learning,2024.2.4,144.09388007182923,2025-10-05 22h25.27.352506 +0530,
150,v,197,1,49,v,1,0.7695616999990307,None,49,1,197,1,,,,,508.50210929999594,,508.49781420000363,508.50210929999594,509.4883556999994,509.4883556999994,509.4883556999994,509.4883556999994,509.4949925999972,510.48820750000596,510.48820750000596,511.2607957,v,1,0.7695616999990307,None,,,,,048011,001,2025-10-05_22h24.32.993,Motor Learning,2024.2.4,144.09388007182923,2025-10-05 22h25.27.352506 +0530,
50,c,198,2,49,c,1,2.1280626999941887,None,49,2,198,2,,,,,511.2656816999952,,511.2611737999978,511.2656816999952,512.2517285999929,512.2517285999929,512.2517285999929,512.2517285999929,512.2586902000039,513.2516747000045,513.2516747000045,515.3848899000004,c,1,2.1280626999941887,None,,,,,048011,001,2025-10-05_22h24.32.993,Motor Learning,2024.2.4,144.09388007182923,2025-10-05 22h25.27.352506 +0530,
-150,z,199,3,49,z,1,1.8260052999976324,None,49,3,199,3,,,,,515.3900878999993,,515.3852918000048,515.3900878999993,516.3761844999972,516.3761844999972,516.3761844999972,516.3761844999972,516.3830634000042,517.3759444000025,517.3759444000025,519.2034465000033,z,1,1.8260052999976324,None,,,,,048011,001,2025-10-05_22h24.32.993,Motor Learning,2024.2.4,144.09388007182923,2025-10-05 22h25.27.352506 +0530,
-150,z,0,0,0,z,1,2.10065740000573,None,,,,,0,0,0,3,519.2377755000052,,519.2330946000002,519.2377755000052,520.1957194999995,520.1957194999995,520.1957194999995,520.1957194999995,520.2297409000021,521.1949374999967,521.1949374999967,523.3006580999936,,,,,z,1,2.10065740000573,None,048011,001,2025-10-05_22h24.32.993,Motor Learning,2024.2.4,144.09388007182923,2025-10-05 22h25.27.352506 +0530,
-50,x,1,1,0,x,1,0.31614909999188967,None,,,,,0,1,1,0,523.3055972000002,,523.301099999997,523.3055972000002,524.2915862999944,524.2915862999944,524.2915862999944,524.2915862999944,524.2985540999944,525.2914053999993,525.2914053999993,525.6123946000007,,,,,x,1,0.31614909999188967,None,048011,001,2025-10-05_22h24.32.993,Motor Learning,2024.2.4,144.09388007182923,2025-10-05 22h25.27.352506 +0530,
150,v,2,2,0,v,1,1.088242600002559,None,,,,,0,2,2,1,525.6177421000029,,525.6128019000025,525.6177421000029,526.6038757999922,526.6038757999922,526.6038757999922,526.6038757999922,526.6108430000022,527.6036231000035,527.6036231000035,528.695538999993,,,,,v,1,1.088242600002559,None,048011,001,2025-10-05_22h24.32.993,Motor Learning,2024.2.4,144.09388007182923,2025-10-05 22h25.27.352506 +0530,
50,c,3,3,0,c,1,0.2565833999979077,None,,,,,0,3,3,2,528.7007625999977,,528.6959895000036,528.7007625999977,529.6868531999935,529.6868531999935,529.6868531999935,529.6868531999935,529.6937997999921,530.6866494999995,530.6866494999995,530.9451622000051,,,,,c,1,0.2565833999979077,None,048011,001,2025-10-05_22h24.32.993,Motor Learning,2024.2.4,144.09388007182923,2025-10-05 22h25.27.352506 +0530,
150,v,4,4,1,x,0,1.2565557999914745,None,,,,,1,4,4,1,530.9503126000054,,530.9455573000014,530.9503126000054,531.9364621999994,531.9364621999994,531.9364621999994,531.9364621999994,531.9431637999951,532.9361092000036,532.9361092000036,534.194533300004,,,,,x,0,1.2565557999914745,None,048011,001,2025-10-05_22h24.32.993,Motor Learning,2024.2.4,144.09388007182923,2025-10-05 22h25.27.352506 +0530,
50,c,5,5,1,c,1,1.3079607999970904,None,,,,,1,5,5,2,534.1998121999932,,534.1949543999945,534.1998121999932,535.1858275999984,535.1858275999984,535.1858275999984,535.1858275999984,535.1928977999924,536.1856853999925,536.1856853999925,537.4993921999994,,,,,c,1,1.3079607999970904,None,048011,001,2025-10-05_22h24.32.993,Motor Learning,2024.2.4,144.09388007182923,2025-10-05 22h25.27.352506 +0530,
-150,z,6,6,1,z,1,0.6314666000107536,None,,,,,1,6,6,3,537.5051028000016,,537.499813500006,537.5051028000016,538.4901613999973,538.4901613999973,538.4901613999973,538.4901613999973,538.4971532000054,539.4906374999991,539.4906374999991,540.1245426999958,,,,,z,1,0.6314666000107536,None,048011,001,2025-10-05_22h24.32.993,Motor Learning,2024.2.4,144.09388007182923,2025-10-05 22h25.27.352506 +0530,
-50,x,7,7,1,x,1,0.30708009999943897,None,,,,,1,7,7,0,540.1296985999943,,540.1249745999958,540.1296985999943,541.1156524999969,541.1156524999969,541.1156524999969,541.1156524999969,541.1223654999922,542.1154989000061,542.1154989000061,542.4293276999961,,,,,x,1,0.30708009999943897,None,048011,001,2025-10-05_22h24.32.993,Motor Learning,2024.2.4,144.09388007182923,2025-10-05 22h25.27.352506 +0530,
-150,z,8,8,2,z,1,1.1517182999959914,None,,,,,2,8,8,3,542.4347220999916,,542.4297850000003,542.4347220999916,543.4209800999961,543.4209800999961,543.4209800999961,543.4209800999961,543.4278722000017,544.4206139000016,544.4206139000016,545.5752365999942,,,,,z,1,1.1517182999959914,None,048011,001,2025-10-05_22h24.32.993,Motor Learning,2024.2.4,144.09388007182923,2025-10-05 22h25.27.352506 +0530,
150,v,9,9,2,v,1,0.7718347000045469,None,,,,,2,9,9,1,545.5799770000012,,545.5756719999918,545.5799770000012,546.5662550999987,546.5662550999987,546.5662550999987,546.5662550999987,546.5731945000007,547.5660806999949,547.5660806999949,548.3448745999922,,,,,v,1,0.7718347000045469,None,048011,001,2025-10-05_22h24.32.993,Motor Learning,2024.2.4,144.09388007182923,2025-10-05 22h25.27.352506 +0530,
-50,x,10,10,2,x,1,0.8147688000026392,None,,,,,2,10,10,0,548.3506595999934,,548.3452333000023,548.3506595999934,549.3367061000026,549.3367061000026,549.3367061000026,549.3367061000026,549.3436074000056,550.3365029999986,550.3365029999986,551.1574697000033,,,,,x,1,0.8147688000026392,None,048011,001,2025-10-05_22h24.32.993,Motor Learning,2024.2.4,144.09388007182923,2025-10-05 22h25.27.352506 +0530,
50,c,11,11,2,c,1,1.17123900000297,None,,,,,2,11,11,2,551.1626518999983,,551.1578624999966,551.1626518999983,552.148546299999,552.148546299999,552.148546299999,552.148546299999,552.1556454999954,553.1485197000002,553.1485197000002,554.3239717999968,,,,,c,1,1.17123900000297,None,048011,001,2025-10-05_22h24.32.993,Motor Learning,2024.2.4,144.09388007182923,2025-10-05 22h25.27.352506 +0530,
-50,x,12,12,3,x,1,0.6345656000048621,None,,,,,3,12,12,0,554.3287469000061,,554.3244124000048,554.3287469000061,555.314968199993,555.314968199993,555.314968199993,555.314968199993,555.3220115000004,556.3149380999967,556.3149380999967,556.9554772999982,,,,,x,1,0.6345656000048621,None,048011,001,2025-10-05_22h24.32.993,Motor Learning,2024.2.4,144.09388007182923,2025-10-05 22h25.27.352506 +0530,
150,v,13,13,3,v,1,0.9720817000052193,None,,,,,3,13,13,1,556.9605090999976,,556.9558889000036,556.9605090999976,557.9465313999972,557.9465313999972,557.9465313999972,557.9465313999972,557.9535444999929,558.9463962000009,558.9463962000009,559.9204417000001,,,,,v,1,0.9720817000052193,None,048011,001,2025-10-05_22h24.32.993,Motor Learning,2024.2.4,144.09388007182923,2025-10-05 22h25.27.352506 +0530,
-50,x,14,14,4,x,1,0.8562878999946406,None,,,,,4,14,14,0,559.9253778999991,,559.9208800000051,559.9253778999991,560.9113255999982,560.9113255999982,560.9113255999982,560.9113255999982,560.9183637999959,561.9110531000042,561.9110531000042,562.7739608999982,,,,,x,1,0.8562878999946406,None,048011,001,2025-10-05_22h24.32.993,Motor Learning,2024.2.4,144.09388007182923,2025-10-05 22h25.27.352506 +0530,
50,c,15,15,3,c,1,0.7540861000015866,None,,,,,3,15,15,2,562.7791551999981,,562.7743896000029,562.7791551999981,563.7650796999951,563.7650796999951,563.7650796999951,563.7650796999951,563.7720496999973,564.7651102999953,564.7651102999953,565.5233334999939,,,,,c,1,0.7540861000015866,None,048011,001,2025-10-05_22h24.32.993,Motor Learning,2024.2.4,144.09388007182923,2025-10-05 22h25.27.352506 +0530,
150,v,16,16,4,v,1,0.4720344999950612,None,,,,,4,16,16,1,565.5287706999952,,565.5237268999917,565.5287706999952,566.5147549999965,566.5147549999965,566.5147549999965,566.5147549999965,566.5217239000049,567.5145781000028,567.5145781000028,567.9890718999959,,,,,v,1,0.4720344999950612,None,048011,001,2025-10-05_22h24.32.993,Motor Learning,2024.2.4,144.09388007182923,2025-10-05 22h25.27.352506 +0530,
-50,x,17,17,5,x,1,0.6668064999976195,None,,,,,5,17,17,0,567.9936705,,567.9895049000042,567.9936705,568.9797427000012,568.9797427000012,568.9797427000012,568.9797427000012,568.986656699999,569.9794980000006,569.9794980000006,570.6483384000021,,,,,x,1,0.6668064999976195,None,048011,001,2025-10-05_22h24.32.993,Motor Learning,2024.2.4,144.09388007182923,2025-10-05 22h25.27.352506 +0530,
150,v,18,18,5,v,1,0.46708570000191685,None,,,,,5,18,18,1,570.6531392000034,,570.6487379000027,570.6531392000034,571.6389422999928,571.6389422999928,571.6389422999928,571.6389422999928,571.6459895000007,572.6388632000017,572.6388632000017,573.112234500004,,,,,v,1,0.46708570000191685,None,048011,001,2025-10-05_22h24.32.993,Motor Learning,2024.2.4,144.09388007182923,2025-10-05 22h25.27.352506 +0530,
-150,z,19,19,3,z,1,0.5555878000013763,None,,,,,3,19,19,3,573.1179984000046,,573.1126310999971,573.1179984000046,574.1039109999983,574.1039109999983,574.1039109999983,574.1039109999983,574.1109391999926,575.1038260999921,575.1038260999921,575.6617678000039,,,,,z,1,0.5555878000013763,None,048011,001,2025-10-05_22h24.32.993,Motor Learning,2024.2.4,144.09388007182923,2025-10-05 22h25.27.352506 +0530,
-50,x,20,20,6,x,1,0.5979398000054061,None,,,,,6,20,20,0,575.6661415999988,,575.6621224999981,575.6661415999988,576.6521343999921,576.6521343999921,576.6521343999921,576.6521343999921,576.6591138999938,577.6525383999979,577.6525383999979,578.2571674999926,,,,,x,1,0.5979398000054061,None,048011,001,2025-10-05_22h24.32.993,Motor Learning,2024.2.4,144.09388007182923,2025-10-05 22h25.27.352506 +0530,
50,c,21,21,4,v,0,0.28028700000140816,None,,,,,4,21,21,2,578.2629919000028,,578.2575370999984,578.2629919000028,579.249012100001,579.249012100001,579.249012100001,579.249012100001,579.2559990000009,580.2496042999992,580.2496042999992,580.5352628999972,,,,,v,0,0.28028700000140816,None,048011,001,2025-10-05_22h24.32.993,Motor Learning,2024.2.4,144.09388007182923,2025-10-05 22h25.27.352506 +0530,
-150,z,22,22,4,z,1,0.5401799999963259,None,,,,,4,22,22,3,580.5404585999931,,580.5357051000028,580.5404585999931,581.5264835999988,581.5264835999988,581.5264835999988,581.5264835999988,581.5333658000018,582.5263107999926,582.5263107999926,583.0697732999979,,,,,z,1,0.5401799999963259,None,048011,001,2025-10-05_22h24.32.993,Motor Learning,2024.2.4,144.09388007182923,2025-10-05 22h25.27.352506 +0530,
50,c,23,23,5,c,1,0.8855297999980394,None,,,,,5,23,23,2,583.0748142999946,,583.0702021000034,583.0748142999946,584.060874799994,584.060874799994,584.060874799994,584.060874799994,584.0678141999961,585.0607280999975,585.0607280999975,585.9508548000013,,,,,c,1,0.8855297999980394,None,048011,001,2025-10-05_22h24.32.993,Motor Learning,2024.2.4,144.09388007182923,2025-10-05 22h25.27.352506 +0530,
150,v,24,24,6,v,1,0.4832161000085762,None,,,,,6,24,24,1,585.9562236000056,,585.9513165999961,585.9562236000056,586.9422425999946,586.9422425999946,586.9422425999946,586.9422425999946,586.9491108999937,587.9420800999942,587.9420800999942,588.4296959000058,,,,,v,1,0.4832161000085762,None,048011,001,2025-10-05_22h24.32.993,Motor Learning,2024.2.4,144.09388007182923,2025-10-05 22h25.27.352506 +0530,
150,v,25,25,7,v,1,0.5775404000014532,None,,,,,7,25,25,1,588.4350688999984,,588.4300777000026,588.4350688999984,589.4210277999955,589.4210277999955,589.4210277999955,589.4210277999955,589.4279114999954,590.4208003999956,590.4208003999956,591.0059019000037,,,,,v,1,0.5775404000014532,None,048011,001,2025-10-05_22h24.32.993,Motor Learning,2024.2.4,144.09388007182923,2025-10-05 22h25.27.352506 +0530,
50,c,26,26,6,c,1,0.7254551999940304,None,,,,,6,26,26,2,591.0110545000061,,591.0063068000018,591.0110545000061,591.997168300004,591.997168300004,591.997168300004,591.997168300004,592.0041497999919,592.9969827000023,592.9969827000023,593.7274419000023,,,,,c,1,0.7254551999940304,None,048011,001,2025-10-05_22h24.32.993,Motor Learning,2024.2.4,144.09388007182923,2025-10-05 22h25.27.352506 +0530,
150,v,27,27,8,v,1,0.5983592999982648,None,,,,,8,27,27,1,593.7330392000003,,593.7278280000028,593.7330392000003,594.7197173000022,594.7197173000022,594.7197173000022,594.7197173000022,594.7260761999933,595.7188294999942,595.7188294999942,596.3245029999962,,,,,v,1,0.5983592999982648,None,048011,001,2025-10-05_22h24.32.993,Motor Learning,2024.2.4,144.09388007182923,2025-10-05 22h25.27.352506 +0530,
-50,x,28,28,7,c,0,0.42318230000091717,None,,,,,7,28,28,0,596.329662499993,,596.3249345999939,596.329662499993,597.3159461000032,597.3159461000032,597.3159461000032,597.3159461000032,597.3228454000055,598.3156680999964,598.3156680999964,598.7413906000002,,,,,c,0,0.42318230000091717,None,048011,001,2025-10-05_22h24.32.993,Motor Learning,2024.2.4,144.09388007182923,2025-10-05 22h25.27.352506 +0530,
-50,x,29,29,8,x,1,0.8141236000083154,None,,,,,8,29,29,0,598.7461600999959,,598.7418196999934,598.7461600999959,599.7321804999956,599.7321804999956,599.7321804999956,599.7321804999956,599.7391149000032,600.7320060999918,600.7320060999918,601.5536051999952,,,,,x,1,0.8141236000083154,None,048011,001,2025-10-05_22h24.32.993,Motor Learning,2024.2.4,144.09388007182923,2025-10-05 22h25.27.352506 +0530,
-150,z,30,30,5,x,0,0.5618630999961169,None,,,,,5,30,30,3,601.5582070999953,,601.5540022000059,601.5582070999953,602.5443461999967,602.5443461999967,602.5443461999967,602.5443461999967,602.551089200002,603.5440808999992,603.5440808999992,604.1084155999997,,,,,x,0,0.5618630999961169,None,048011,001,2025-10-05_22h24.32.993,Motor Learning,2024.2.4,144.09388007182923,2025-10-05 22h25.27.352506 +0530,
50,c,31,31,7,c,1,0.7876675000006799,None,,,,,7,31,31,2,604.1134491999983,,604.108831599995,604.1134491999983,605.0991267999925,605.0991267999925,605.0991267999925,605.0991267999925,605.1063193000009,606.0994486999989,606.0994486999989,606.8923103999987,,,,,c,1,0.7876675000006799,None,048011,001,2025-10-05_22h24.32.993,Motor Learning,2024.2.4,144.09388007182923,2025-10-05 22h25.27.352506 +0530,
-150,z,32,32,6,z,1,0.7083447000040906,None,,,,,6,32,32,3,606.8976340999943,,606.8927508000052,606.8976340999943,607.8837914000032,607.8837914000032,607.8837914000032,607.8837914000032,607.8905997999973,608.8836209000001,608.8836209000001,609.5934721999947,,,,,z,1,0.7083447000040906,None,048011,001,2025-10-05_22h24.32.993,Motor Learning,2024.2.4,144.09388007182923,2025-10-05 22h25.27.352506 +0530,
-50,x,33,33,9,x,1,0.4811290000070585,None,,,,,9,33,33,0,609.5986497999984,,609.5938947999966,609.5986497999984,610.5845302999951,610.5845302999951,610.5845302999951,610.5845302999951,610.5915876999934,611.5846213000041,611.5846213000041,612.0719116999971,,,,,x,1,0.4811290000070585,None,048011,001,2025-10-05_22h24.32.993,Motor Learning,2024.2.4,144.09388007182923,2025-10-05 22h25.27.352506 +0530,
150,v,34,34,9,v,1,0.6589611999952467,None,,,,,9,34,34,1,612.0774552999937,,612.0722807999991,612.0774552999937,613.0636116999958,613.0636116999958,613.0636116999958,613.0636116999958,613.0704983000032,614.0632967999991,614.0632967999991,614.7248094999959,,,,,v,1,0.6589611999952467,None,048011,001,2025-10-05_22h24.32.993,Motor Learning,2024.2.4,144.09388007182923,2025-10-05 22h25.27.352506 +0530,
150,v,35,35,10,v,1,0.5716447999875527,None,,,,,10,35,35,1,614.7298370999924,,614.7252042000036,614.7298370999924,615.7157539000036,615.7157539000036,615.7157539000036,615.7157539000036,615.7228644999996,616.7155123999983,616.7155123999983,617.2933454000013,,,,,v,1,0.5716447999875527,None,048011,001,2025-10-05_22h24.32.993,Motor Learning,2024.2.4,144.09388007182923,2025-10-05 22h25.27.352506 +0530,
-50,x,36,36,10,x,1,0.7443969000014476,None,,,,,10,36,36,0,617.2987886000046,,617.2936682,617.2987886000046,618.2847460000048,618.2847460000048,618.2847460000048,618.2847460000048,618.291928199993,619.2849162999919,619.2849162999919,620.0363185000024,,,,,x,1,0.7443969000014476,None,048011,001,2025-10-05_22h24.32.993,Motor Learning,2024.2.4,144.09388007182923,2025-10-05 22h25.27.352506 +0530,
150,v,37,37,11,v,1,0.4741346000082558,None,,,,,11,37,37,1,620.0417344000016,,620.0367657000024,620.0417344000016,621.027610899997,621.027610899997,621.027610899997,621.027610899997,621.0346035999974,622.027459399993,622.027459399993,622.5083671000029,,,,,v,1,0.4741346000082558,None,048011,001,2025-10-05_22h24.32.993,Motor Learning,2024.2.4,144.09388007182923,2025-10-05 22h25.27.352506 +0530,
150,v,38,38,12,v,1,0.45745390000229236,None,,,,,12,38,38,1,622.5134158000001,,622.5087677999982,622.5134158000001,623.4992786999937,623.4992786999937,623.4992786999937,623.4992786999937,623.5065105999965,624.4991118000034,624.4991118000034,624.9593153000023,,,,,v,1,0.45745390000229236,None,048011,001,2025-10-05_22h24.32.993,Motor Learning,2024.2.4,144.09388007182923,2025-10-05 22h25.27.352506 +0530,
50,c,39,39,8,c,1,0.7999711000011303,None,,,,,8,39,39,2,624.9644013999932,,624.9597447999986,624.9644013999932,625.9504557000037,625.9504557000037,625.9504557000037,625.9504557000037,625.9575164999987,626.9504897000006,626.9504897000006,627.7571176999918,,,,,c,1,0.7999711000011303,None,048011,001,2025-10-05_22h24.32.993,Motor Learning,2024.2.4,144.09388007182923,2025-10-05 22h25.27.352506 +0530,
-150,z,40,40,7,z,1,0.7790899999963585,None,,,,,7,40,40,3,627.7626233000046,,627.7575049000006,627.7626233000046,628.748772299994,628.748772299994,628.748772299994,628.748772299994,628.7555272000027,629.7486301000026,629.7486301000026,630.5347317999986,,,,,z,1,0.7790899999963585,None,048011,001,2025-10-05_22h24.32.993,Motor Learning,2024.2.4,144.09388007182923,2025-10-05 22h25.27.352506 +0530,
-50,x,41,41,11,x,1,0.7309554000094067,None,,,,,11,41,41,0,630.5400710999966,,630.5351391000004,630.5400710999966,631.5262103999994,631.5262103999994,631.5262103999994,631.5262103999994,631.5331372999935,632.5260347000003,632.5260347000003,633.2636191999918,,,,,x,1,0.7309554000094067,None,048011,001,2025-10-05_22h24.32.993,Motor Learning,2024.2.4,144.09388007182923,2025-10-05 22h25.27.352506 +0530,
-150,z,42,42,8,z,1,0.6655942000070354,None,,,,,8,42,42,3,633.2688325000054,,633.264030499995,633.2688325000054,634.2545802999957,634.2545802999957,634.2545802999957,634.2545802999957,634.2618080999964,635.2546856999979,635.2546856999979,635.9229334999982,,,,,z,1,0.6655942000070354,None,048011,001,2025-10-05_22h24.32.993,Motor Learning,2024.2.4,144.09388007182923,2025-10-05 22h25.27.352506 +0530,
150,v,43,43,13,v,1,0.4894358000019565,None,,,,,13,43,43,1,635.9281519999931,,635.9233515999949,635.9281519999931,636.914122599992,636.914122599992,636.914122599992,636.914122599992,636.9209749000001,637.9140413999994,637.9140413999994,638.4083551999938,,,,,v,1,0.4894358000019565,None,048011,001,2025-10-05_22h24.32.993,Motor Learning,2024.2.4,144.09388007182923,2025-10-05 22h25.27.352506 +0530,
-150,z,44,44,9,z,1,0.5852002000028733,None,,,,,9,44,44,3,638.4139326000004,,638.4087474999978,638.4139326000004,639.3997775000025,639.3997775000025,639.3997775000025,639.3997775000025,639.4070757000009,640.3997031000035,640.3997031000035,640.9912775999983,,,,,z,1,0.5852002000028733,None,048011,001,2025-10-05_22h24.32.993,Motor Learning,2024.2.4,144.09388007182923,2025-10-05 22h25.27.352506 +0530,
50,c,45,45,9,c,1,2.1109329000028083,None,,,,,9,45,45,2,640.9970379000006,,640.9916489000025,640.9970379000006,641.9828062000015,641.9828062000015,641.9828062000015,641.9828062000015,641.9898027000017,642.9824704999919,642.9824704999919,645.0953824000026,,,,,c,1,2.1109329000028083,None,048011,001,2025-10-05_22h24.32.993,Motor Learning,2024.2.4,144.09388007182923,2025-10-05 22h25.27.352506 +0530,
