pos,corr_resp,thisN,thisTrialN,thisRepN,key_resp.keys,key_resp.corr,key_resp.rt,key_resp.duration,trials.thisRepN,trials.thisTrialN,trials.thisN,trials.thisIndex,trials_2.thisRepN,trials_2.thisTrialN,trials_2.thisN,trials_2.thisIndex,thisRow.t,notes,trial.started,Fixation.started,Line_1.started,Line_2.started,Line_3.started,Line_4.started,Fixation.stopped,Probe.started,key_resp.started,trial.stopped,trials.key_resp.keys,trials.key_resp.corr,trials.key_resp.rt,trials.key_resp.duration,trials_2.key_resp.keys,trials_2.key_resp.corr,trials_2.key_resp.rt,trials_2.key_resp.duration,participant,session,date,expName,expVersion,psychopyVersion,frameRate,expStart,
-50,x,0,0,0,x,1,0.48138570017181337,None,0,0,0,0,,,,,0.05376749997958541,,0.04153200006112456,0.05376749997958541,0.9983729000668973,0.9983729000668973,0.9983729000668973,0.9983729000668973,1.0540175000205636,1.9975245001260191,1.9975245001260191,4.7320644001010805,x,1,0.48138570017181337,None,,,,,04,001,2025-10-02_11h26.52.613,Motor Sequential Learning,,2025.1.1,72.94887807643727,2025-10-02 11h26.58.698852 +0530,
150,v,1,1,0,v,1,0.45514649990946054,None,0,1,1,1,,,,,4.741286500124261,,4.732260000193492,4.741286500124261,5.728682100074366,5.728682100074366,5.728682100074366,5.728682100074366,5.741866399999708,6.734928600024432,6.734928600024432,7.193065200001001,v,1,0.45514649990946054,None,,,,,04,001,2025-10-02_11h26.52.613,Motor Sequential Learning,,2025.1.1,72.94887807643727,2025-10-02 11h26.58.698852 +0530,
50,c,2,2,0,c,1,0.4776305998675525,None,0,2,2,2,,,,,7.201243800111115,,7.193380000069737,7.201243800111115,8.186451200162992,8.186451200162992,8.186451200162992,8.186451200162992,8.193384600104764,9.186799300136045,9.186799300136045,9.66713250009343,c,1,0.4776305998675525,None,,,,,04,001,2025-10-02_11h26.52.613,Motor Sequential Learning,,2025.1.1,72.94887807643727,2025-10-02 11h26.58.698852 +0530,
-150,z,3,3,0,z,1,0.489411500049755,None,0,3,3,3,,,,,9.677992700133473,,9.667497800197452,9.677992700133473,10.664487400092185,10.664487400092185,10.664487400092185,10.664487400092185,10.67297220020555,11.664964500116184,11.664964500116184,12.15928200003691,z,1,0.489411500049755,None,,,,,04,001,2025-10-02_11h26.52.613,Motor Sequential Learning,,2025.1.1,72.94887807643727,2025-10-02 11h26.58.698852 +0530,
-50,x,4,0,1,x,1,0.48461719998158514,None,1,0,4,0,,,,,12.165480600204319,,12.159562700195238,12.165480600204319,13.158251200104132,13.158251200104132,13.158251200104132,13.158251200104132,13.166494300123304,14.157711200183257,14.157711200183257,14.647377700079232,x,1,0.48461719998158514,None,,,,,04,001,2025-10-02_11h26.52.613,Motor Sequential Learning,,2025.1.1,72.94887807643727,2025-10-02 11h26.58.698852 +0530,
150,v,5,1,1,v,1,0.5926332999952137,None,1,1,5,1,,,,,14.65771870012395,,14.647730100201443,14.65771870012395,15.653912900015712,15.653912900015712,15.653912900015712,15.653912900015712,15.664995200000703,16.638300599996,16.638300599996,17.234857600182295,v,1,0.5926332999952137,None,,,,,04,001,2025-10-02_11h26.52.613,Motor Sequential Learning,,2025.1.1,72.94887807643727,2025-10-02 11h26.58.698852 +0530,
50,c,6,2,1,c,1,0.37498540012165904,None,1,2,6,2,,,,,17.242379500065,,17.235062800114974,17.242379500065,18.23454760015011,18.23454760015011,18.23454760015011,18.23454760015011,18.243303700117394,19.234387300210074,19.234387300210074,19.610431600129232,c,1,0.37498540012165904,None,,,,,04,001,2025-10-02_11h26.52.613,Motor Sequential Learning,,2025.1.1,72.94887807643727,2025-10-02 11h26.58.698852 +0530,
-150,z,7,3,1,z,1,0.36642470001243055,None,1,3,7,3,,,,,19.623235700186342,,19.610670400084928,19.623235700186342,20.610878400038928,20.610878400038928,20.610878400038928,20.610878400038928,20.62312770006247,21.610730700194836,21.610730700194836,21.985651000170037,z,1,0.36642470001243055,None,,,,,04,001,2025-10-02_11h26.52.613,Motor Sequential Learning,,2025.1.1,72.94887807643727,2025-10-02 11h26.58.698852 +0530,
-50,x,8,0,2,x,1,0.3316986998543143,None,2,0,8,0,,,,,21.998859900049865,,21.98619220010005,21.998859900049865,22.984534200048074,22.984534200048074,22.984534200048074,22.984534200048074,22.993159100180492,23.984268500003964,23.984268500003964,24.318843000102788,x,1,0.3316986998543143,None,,,,,04,001,2025-10-02_11h26.52.613,Motor Sequential Learning,,2025.1.1,72.94887807643727,2025-10-02 11h26.58.698852 +0530,
150,v,9,1,2,v,1,0.3875762999523431,None,2,1,9,1,,,,,24.33214360009879,,24.31933890003711,24.33214360009879,25.318553700111806,25.318553700111806,25.318553700111806,25.318553700111806,25.33254240010865,26.319788300199434,26.319788300199434,26.714161799987778,v,1,0.3875762999523431,None,,,,,04,001,2025-10-02_11h26.52.613,Motor Sequential Learning,,2025.1.1,72.94887807643727,2025-10-02 11h26.58.698852 +0530,
50,c,10,2,2,c,1,0.34090339997783303,None,2,2,10,2,,,,,26.7220960999839,,26.714353000046685,26.7220960999839,27.7140407001134,27.7140407001134,27.7140407001134,27.7140407001134,27.722699800040573,28.7075821000617,28.7075821000617,29.062221700092778,c,1,0.34090339997783303,None,,,,,04,001,2025-10-02_11h26.52.613,Motor Sequential Learning,,2025.1.1,72.94887807643727,2025-10-02 11h26.58.698852 +0530,
-150,z,11,3,2,z,1,0.2598239998333156,None,2,3,11,3,,,,,29.075434600003064,,29.062788899987936,29.075434600003064,30.06866450002417,30.06866450002417,30.06866450002417,30.06866450002417,30.082199500175193,31.068458900088444,31.068458900088444,31.33331950008869,z,1,0.2598239998333156,None,,,,,04,001,2025-10-02_11h26.52.613,Motor Sequential Learning,,2025.1.1,72.94887807643727,2025-10-02 11h26.58.698852 +0530,
-50,x,12,0,3,x,1,0.28374839993193746,None,3,0,12,0,,,,,31.345674300100654,,31.333805800182745,31.345674300100654,32.33270200015977,32.33270200015977,32.33270200015977,32.33270200015977,32.34615740017034,33.33963629999198,33.33963629999198,33.62501509999856,x,1,0.28374839993193746,None,,,,,04,001,2025-10-02_11h26.52.613,Motor Sequential Learning,,2025.1.1,72.94887807643727,2025-10-02 11h26.58.698852 +0530,
150,v,13,1,3,v,1,0.43616920011118054,None,3,1,13,1,,,,,33.63794829999097,,33.62542340019718,33.63794829999097,34.62401170004159,34.62401170004159,34.62401170004159,34.62401170004159,34.63314060005359,35.61850780015811,35.61850780015811,36.0552743000444,v,1,0.43616920011118054,None,,,,,04,001,2025-10-02_11h26.52.613,Motor Sequential Learning,,2025.1.1,72.94887807643727,2025-10-02 11h26.58.698852 +0530,
50,c,14,2,3,c,1,0.25496049993671477,None,3,2,14,2,,,,,36.068533200072125,,36.05565530015156,36.068533200072125,37.06190020008944,37.06190020008944,37.06190020008944,37.06190020008944,37.07543550012633,38.06148220016621,38.06148220016621,38.31852760002948,c,1,0.25496049993671477,None,,,,,04,001,2025-10-02_11h26.52.613,Motor Sequential Learning,,2025.1.1,72.94887807643727,2025-10-02 11h26.58.698852 +0530,
-150,z,15,3,3,z,1,0.2660856998991221,None,3,3,15,3,,,,,38.32624850003049,,38.318712500156835,38.32624850003049,39.318547800183296,39.318547800183296,39.318547800183296,39.318547800183296,39.332656800048426,40.31900990009308,40.31900990009308,40.592171100201085,z,1,0.2660856998991221,None,,,,,04,001,2025-10-02_11h26.52.613,Motor Sequential Learning,,2025.1.1,72.94887807643727,2025-10-02 11h26.58.698852 +0530,
-50,x,16,0,4,x,1,0.3068649999331683,None,4,0,16,0,,,,,40.604867100017145,,40.59266670001671,40.604867100017145,41.589639300014824,41.589639300014824,41.589639300014824,41.589639300014824,41.60351060004905,42.59657660010271,42.59657660010271,42.909836100181565,x,1,0.3068649999331683,None,,,,,04,001,2025-10-02_11h26.52.613,Motor Sequential Learning,,2025.1.1,72.94887807643727,2025-10-02 11h26.58.698852 +0530,
150,v,17,1,4,v,1,0.1819434999488294,None,4,1,17,1,,,,,42.9223917000927,,42.910415900172666,42.9223917000927,43.90889580012299,43.90889580012299,43.90889580012299,43.90889580012299,43.91758450004272,44.90924379997887,44.90924379997887,45.09664690005593,v,1,0.1819434999488294,None,,,,,04,001,2025-10-02_11h26.52.613,Motor Sequential Learning,,2025.1.1,72.94887807643727,2025-10-02 11h26.58.698852 +0530,
50,c,18,2,4,c,1,0.3081128001213074,None,4,2,18,2,,,,,45.1052833001595,,45.096921500051394,45.1052833001595,46.0978490000125,46.0978490000125,46.0978490000125,46.0978490000125,46.0978490000125,47.096282000187784,47.096282000187784,47.40997890010476,c,1,0.3081128001213074,None,,,,,04,001,2025-10-02_11h26.52.613,Motor Sequential Learning,,2025.1.1,72.94887807643727,2025-10-02 11h26.58.698852 +0530,
-150,z,19,3,4,z,1,0.36289150011725724,None,4,3,19,3,,,,,47.423263400094584,,47.41065440000966,47.423263400094584,48.409221100155264,48.409221100155264,48.409221100155264,48.409221100155264,48.423214400187135,49.41632860014215,49.41632860014215,49.791931700194255,z,1,0.36289150011725724,None,,,,,04,001,2025-10-02_11h26.52.613,Motor Sequential Learning,,2025.1.1,72.94887807643727,2025-10-02 11h26.58.698852 +0530,
-50,x,20,0,5,x,1,0.27006000000983477,None,5,0,20,0,,,,,49.8048353001941,,49.79262450011447,49.8048353001941,50.79289979999885,50.79289979999885,50.79289979999885,50.79289979999885,50.80504190013744,51.79105200013146,51.79105200013146,52.069718500133604,x,1,0.27006000000983477,None,,,,,04,001,2025-10-02_11h26.52.613,Motor Sequential Learning,,2025.1.1,72.94887807643727,2025-10-02 11h26.58.698852 +0530,
150,v,21,1,5,v,1,0.22471249988302588,None,5,1,21,1,,,,,52.08279370004311,,52.07015410019085,52.08279370004311,53.06904920004308,53.06904920004308,53.06904920004308,53.06904920004308,53.08323250012472,54.06899080006406,54.06899080006406,54.30559210013598,v,1,0.22471249988302588,None,,,,,04,001,2025-10-02_11h26.52.613,Motor Sequential Learning,,2025.1.1,72.94887807643727,2025-10-02 11h26.58.698852 +0530,
50,c,22,2,5,c,1,0.2518591000698507,None,5,2,22,2,,,,,54.31869060010649,,54.306266100145876,54.31869060010649,55.30487530003302,55.30487530003302,55.30487530003302,55.30487530003302,55.313829000107944,56.30493520013988,56.30493520013988,56.562456800136715,c,1,0.2518591000698507,None,,,,,04,001,2025-10-02_11h26.52.613,Motor Sequential Learning,,2025.1.1,72.94887807643727,2025-10-02 11h26.58.698852 +0530,
-150,z,23,3,5,z,1,0.23626899998635054,None,5,3,23,3,,,,,56.57612620014697,,56.562889700056985,56.57612620014697,57.562115099979565,57.562115099979565,57.562115099979565,57.562115099979565,57.57548660016619,58.569047700148076,58.569047700148076,58.81291120010428,z,1,0.23626899998635054,None,,,,,04,001,2025-10-02_11h26.52.613,Motor Sequential Learning,,2025.1.1,72.94887807643727,2025-10-02 11h26.58.698852 +0530,
-50,x,24,0,6,x,1,0.20493609993718565,None,6,0,24,0,,,,,58.82599170017056,,58.81340410001576,58.82599170017056,59.81932420004159,59.81932420004159,59.81932420004159,59.81932420004159,59.83299810020253,60.811008900171146,60.811008900171146,61.02707770001143,x,1,0.20493609993718565,None,,,,,04,001,2025-10-02_11h26.52.613,Motor Sequential Learning,,2025.1.1,72.94887807643727,2025-10-02 11h26.58.698852 +0530,
150,v,25,1,6,v,1,0.2623742001596838,None,6,1,25,1,,,,,61.03491420019418,,61.02734400006011,61.03491420019418,62.027411699993536,62.027411699993536,62.027411699993536,62.027411699993536,62.036047000205144,63.02837700000964,63.02837700000964,63.298688100185245,v,1,0.2623742001596838,None,,,,,04,001,2025-10-02_11h26.52.613,Motor Sequential Learning,,2025.1.1,72.94887807643727,2025-10-02 11h26.58.698852 +0530,
50,c,26,2,6,c,1,0.1917805999983102,None,6,2,26,2,,,,,63.312026400119066,,63.29929740005173,63.312026400119066,64.30517720011994,64.30517720011994,64.30517720011994,64.30517720011994,64.31361960014328,65.29966950020753,65.29966950020753,65.49605130008422,c,1,0.1917805999983102,None,,,,,04,001,2025-10-02_11h26.52.613,Motor Sequential Learning,,2025.1.1,72.94887807643727,2025-10-02 11h26.58.698852 +0530,
-150,z,27,3,6,z,1,0.337800299981609,None,6,3,27,3,,,,,65.50865810015239,,65.49647560017183,65.50865810015239,66.49275270011276,66.49275270011276,66.49275270011276,66.49275270011276,66.50640409998596,67.49959210003726,67.49959210003726,67.84056010004133,z,1,0.337800299981609,None,,,,,04,001,2025-10-02_11h26.52.613,Motor Sequential Learning,,2025.1.1,72.94887807643727,2025-10-02 11h26.58.698852 +0530,
-50,x,28,0,7,x,1,0.22413029987365007,None,7,0,28,0,,,,,67.85403809999116,,67.84103410015814,67.85403809999116,68.83449789998122,68.83449789998122,68.83449789998122,68.83449789998122,68.860483400058,69.84659720002674,69.84659720002674,70.07584600010887,x,1,0.22413029987365007,None,,,,,04,001,2025-10-02_11h26.52.613,Motor Sequential Learning,,2025.1.1,72.94887807643727,2025-10-02 11h26.58.698852 +0530,
150,v,29,1,7,v,1,0.2537510998081416,None,7,1,29,1,,,,,70.08414440019988,,70.07616150006652,70.08414440019988,71.0760581002105,71.0760581002105,71.0760581002105,71.0760581002105,71.09014310012572,72.07614620006643,72.07614620006643,72.3406070000492,v,1,0.2537510998081416,None,,,,,04,001,2025-10-02_11h26.52.613,Motor Sequential Learning,,2025.1.1,72.94887807643727,2025-10-02 11h26.58.698852 +0530,
50,c,30,2,7,c,1,0.23209639987908304,None,7,2,30,2,,,,,72.35469970013946,,72.34113020007499,72.35469970013946,73.34026610013098,73.34026610013098,73.34026610013098,73.34026610013098,73.35390920005739,74.34722280013375,74.34722280013375,74.58370130020194,c,1,0.23209639987908304,None,,,,,04,001,2025-10-02_11h26.52.613,Motor Sequential Learning,,2025.1.1,72.94887807643727,2025-10-02 11h26.58.698852 +0530,
-150,z,31,3,7,z,1,0.2772762000095099,None,7,3,31,3,,,,,74.5968413001392,,74.58424610015936,74.5968413001392,75.58366450015455,75.58366450015455,75.58366450015455,75.58366450015455,75.59695730009116,76.58300600014627,76.58300600014627,76.86264230008237,z,1,0.2772762000095099,None,,,,,04,001,2025-10-02_11h26.52.613,Motor Sequential Learning,,2025.1.1,72.94887807643727,2025-10-02 11h26.58.698852 +0530,
-50,x,32,0,8,x,1,0.2360920999199152,None,8,0,32,0,,,,,76.87469210010022,,76.8629976999946,76.87469210010022,77.85422189999372,77.85422189999372,77.85422189999372,77.85422189999372,77.86823580018245,78.86107480013743,78.86107480013743,79.10508420015685,x,1,0.2360920999199152,None,,,,,04,001,2025-10-02_11h26.52.613,Motor Sequential Learning,,2025.1.1,72.94887807643727,2025-10-02 11h26.58.698852 +0530,
150,v,33,1,8,v,1,0.24449599999934435,None,8,1,33,1,,,,,79.11776930000633,,79.10589010012336,79.11776930000633,80.10381600004621,80.10381600004621,80.10381600004621,80.10381600004621,80.11266129999422,81.09757570014335,81.09757570014335,81.35399700002745,v,1,0.24449599999934435,None,,,,,04,001,2025-10-02_11h26.52.613,Motor Sequential Learning,,2025.1.1,72.94887807643727,2025-10-02 11h26.58.698852 +0530,
50,c,34,2,8,c,1,0.19611479993909597,None,8,2,34,2,,,,,81.36125090019777,,81.35440489999019,81.36125090019777,82.35498310020193,82.35498310020193,82.35498310020193,82.35498310020193,82.35498310020193,83.35372090013698,83.35372090013698,83.56256390013732,c,1,0.19611479993909597,None,,,,,04,001,2025-10-02_11h26.52.613,Motor Sequential Learning,,2025.1.1,72.94887807643727,2025-10-02 11h26.58.698852 +0530,
-150,z,35,3,8,z,1,0.255046300124377,None,8,3,35,3,,,,,83.5709927000571,,83.5629797000438,83.5709927000571,84.55675520002842,84.55675520002842,84.55675520002842,84.55675520002842,84.56894310005009,85.56241170014255,85.56241170014255,85.81936830002815,z,1,0.255046300124377,None,,,,,04,001,2025-10-02_11h26.52.613,Motor Sequential Learning,,2025.1.1,72.94887807643727,2025-10-02 11h26.58.698852 +0530,
-50,x,36,0,9,x,1,0.25948920007795095,None,9,0,36,0,,,,,85.8332646000199,,85.81975390017033,85.8332646000199,86.82091890019365,86.82091890019365,86.82091890019365,86.82091890019365,86.83294060011394,87.82626230013557,87.82626230013557,88.09059020015411,x,1,0.25948920007795095,None,,,,,04,001,2025-10-02_11h26.52.613,Motor Sequential Learning,,2025.1.1,72.94887807643727,2025-10-02 11h26.58.698852 +0530,
150,v,37,1,9,v,1,0.23428149987012148,None,9,1,37,1,,,,,88.10372010013089,,88.09105280018412,88.10372010013089,89.09083150001243,89.09083150001243,89.09083150001243,89.09083150001243,89.10426659998484,90.09722520015202,90.09722520015202,90.34045150014572,v,1,0.23428149987012148,None,,,,,04,001,2025-10-02_11h26.52.613,Motor Sequential Learning,,2025.1.1,72.94887807643727,2025-10-02 11h26.58.698852 +0530,
50,c,38,2,9,c,1,0.26112819998525083,None,9,2,38,2,,,,,90.35447430005297,,90.34091510018334,90.35447430005297,91.34039760008454,91.34039760008454,91.34039760008454,91.34039760008454,91.3541537001729,92.34043610002846,92.34043610002846,92.6114728001412,c,1,0.26112819998525083,None,,,,,04,001,2025-10-02_11h26.52.613,Motor Sequential Learning,,2025.1.1,72.94887807643727,2025-10-02 11h26.58.698852 +0530,
-150,z,39,3,9,z,1,0.3827889000531286,None,9,3,39,3,,,,,92.61973410006613,,92.61192030017264,92.61973410006613,93.61139230011031,93.61139230011031,93.61139230011031,93.61139230011031,93.62494570016861,94.61103640007786,94.61103640007786,95.00075520016253,z,1,0.3827889000531286,None,,,,,04,001,2025-10-02_11h26.52.613,Motor Sequential Learning,,2025.1.1,72.94887807643727,2025-10-02 11h26.58.698852 +0530,
-50,x,40,0,10,x,1,0.30186739983037114,None,10,0,40,0,,,,,95.01364720007405,,95.0012474001851,95.01364720007405,95.999867600156,95.999867600156,95.999867600156,95.999867600156,96.00853850017302,96.99930580006912,96.99930580006912,97.3107319001574,x,1,0.30186739983037114,None,,,,,04,001,2025-10-02_11h26.52.613,Motor Sequential Learning,,2025.1.1,72.94887807643727,2025-10-02 11h26.58.698852 +0530,
150,v,41,1,10,v,1,0.23945189989171922,None,10,1,41,1,,,,,97.32118940004148,,97.3112143999897,97.32118940004148,98.319649200188,98.319649200188,98.319649200188,98.319649200188,98.319649200188,99.31262510013767,99.31262510013767,99.56364870001562,v,1,0.23945189989171922,None,,,,,04,001,2025-10-02_11h26.52.613,Motor Sequential Learning,,2025.1.1,72.94887807643727,2025-10-02 11h26.58.698852 +0530,
50,c,42,2,10,c,1,0.20193119999021292,None,10,2,42,2,,,,,99.57653330010362,,99.56409850018099,99.57653330010362,100.55673389998265,100.55673389998265,100.55673389998265,100.55673389998265,100.58353800000623,101.56267270003445,101.56267270003445,101.77149399998598,c,1,0.20193119999021292,None,,,,,04,001,2025-10-02_11h26.52.613,Motor Sequential Learning,,2025.1.1,72.94887807643727,2025-10-02 11h26.58.698852 +0530,
-150,z,43,3,10,z,1,0.2983786999247968,None,10,3,43,3,,,,,101.78512980020605,,101.77192460000515,101.78512980020605,102.77096820017323,102.77096820017323,102.77096820017323,102.77096820017323,102.78481160011142,103.77765260008164,103.77765260008164,104.07874490018003,z,1,0.2983786999247968,None,,,,,04,001,2025-10-02_11h26.52.613,Motor Sequential Learning,,2025.1.1,72.94887807643727,2025-10-02 11h26.58.698852 +0530,
-50,x,44,0,11,x,1,0.19743330008350313,None,11,0,44,0,,,,,104.09023230010644,,104.07931120018475,104.09023230010644,105.07598660001531,105.07598660001531,105.07598660001531,105.07598660001531,105.08443940011784,106.08298790012486,106.08298790012486,106.28528880001977,x,1,0.19743330008350313,None,,,,,04,001,2025-10-02_11h26.52.613,Motor Sequential Learning,,2025.1.1,72.94887807643727,2025-10-02 11h26.58.698852 +0530,
150,v,45,1,11,v,1,0.23531500017270446,None,11,1,45,1,,,,,106.2987764000427,,106.28579930006526,106.2987764000427,107.28498820005916,107.28498820005916,107.28498820005916,107.28498820005916,107.2988786001224,108.28500240016729,108.28500240016729,108.52899920009077,v,1,0.23531500017270446,None,,,,,04,001,2025-10-02_11h26.52.613,Motor Sequential Learning,,2025.1.1,72.94887807643727,2025-10-02 11h26.58.698852 +0530,
50,c,46,2,11,c,1,0.2554181001614779,None,11,2,46,2,,,,,108.54152650013566,,108.52936100005172,108.54152650013566,109.5281637001317,109.5281637001317,109.5281637001317,109.5281637001317,109.54114850005135,110.52824540017173,110.52824540017173,110.79207920003682,c,1,0.2554181001614779,None,,,,,04,001,2025-10-02_11h26.52.613,Motor Sequential Learning,,2025.1.1,72.94887807643727,2025-10-02 11h26.58.698852 +0530,
-150,z,47,3,11,z,1,0.287210299866274,None,11,3,47,3,,,,,110.80007850006223,,110.79239790001884,110.80007850006223,111.79191150004044,111.79191150004044,111.79191150004044,111.79191150004044,111.80095569998957,112.79905130015686,112.79905130015686,113.09896100009792,z,1,0.287210299866274,None,,,,,04,001,2025-10-02_11h26.52.613,Motor Sequential Learning,,2025.1.1,72.94887807643727,2025-10-02 11h26.58.698852 +0530,
-50,x,48,0,12,x,1,0.2407627000939101,None,12,0,48,0,,,,,113.11129290005192,,113.09972729999572,113.11129290005192,114.09752710000612,114.09752710000612,114.09752710000612,114.09752710000612,114.11124840006232,115.0979339000769,115.0979339000769,115.3411334999837,x,1,0.2407627000939101,None,,,,,04,001,2025-10-02_11h26.52.613,Motor Sequential Learning,,2025.1.1,72.94887807643727,2025-10-02 11h26.58.698852 +0530,
150,v,49,1,12,v,1,0.06180489994585514,None,12,1,49,1,,,,,115.35514110000804,,115.34153740014881,115.35514110000804,116.34026710013859,116.34026710013859,116.34026710013859,116.34026710013859,116.34898200002499,117.34045120002702,117.34045120002702,117.41101819998585,v,1,0.06180489994585514,None,,,,,04,001,2025-10-02_11h26.52.613,Motor Sequential Learning,,2025.1.1,72.94887807643727,2025-10-02 11h26.58.698852 +0530,
50,c,50,2,12,c,1,0.1935635998379439,None,12,2,50,2,,,,,117.42378150019795,,117.41180890006945,117.42378150019795,118.41671740007587,118.41671740007587,118.41671740007587,118.41671740007587,118.42553260014392,119.40951240016147,119.40951240016147,119.60595030011609,c,1,0.1935635998379439,None,,,,,04,001,2025-10-02_11h26.52.613,Motor Sequential Learning,,2025.1.1,72.94887807643727,2025-10-02 11h26.58.698852 +0530,
-150,z,51,3,12,z,1,0.238740999950096,None,12,3,51,3,,,,,119.61836680001579,,119.60706920013763,119.61836680001579,120.61186540010385,120.61186540010385,120.61186540010385,120.61186540010385,120.62540600006469,121.60514290002175,121.60514290002175,121.85551760019735,z,1,0.238740999950096,None,,,,,04,001,2025-10-02_11h26.52.613,Motor Sequential Learning,,2025.1.1,72.94887807643727,2025-10-02 11h26.58.698852 +0530,
-50,x,52,0,13,x,1,0.24700829992070794,None,13,0,52,0,,,,,121.86813340010121,,121.8559358001221,121.86813340010121,122.8546590001788,122.8546590001788,122.8546590001788,122.8546590001788,122.86874290020205,123.85448219999671,123.85448219999671,124.11142840003595,x,1,0.24700829992070794,None,,,,,04,001,2025-10-02_11h26.52.613,Motor Sequential Learning,,2025.1.1,72.94887807643727,2025-10-02 11h26.58.698852 +0530,
150,v,53,1,13,v,1,0.20655809994786978,None,13,1,53,1,,,,,124.11965120001696,,124.1119080001954,124.11965120001696,125.11159140011296,125.11159140011296,125.11159140011296,125.11159140011296,125.12564400001429,126.10568470018916,126.10568470018916,126.3207829000894,v,1,0.20655809994786978,None,,,,,04,001,2025-10-02_11h26.52.613,Motor Sequential Learning,,2025.1.1,72.94887807643727,2025-10-02 11h26.58.698852 +0530,
50,c,54,2,13,c,1,0.19459890015423298,None,13,2,54,2,,,,,126.33396290009841,,126.3212733999826,126.33396290009841,127.31404490000568,127.31404490000568,127.31404490000568,127.31404490000568,127.33561160019599,128.32657730020583,128.32657730020583,128.5356593001634,c,1,0.19459890015423298,None,,,,,04,001,2025-10-02_11h26.52.613,Motor Sequential Learning,,2025.1.1,72.94887807643727,2025-10-02 11h26.58.698852 +0530,
-150,z,55,3,13,z,1,0.2530056999530643,None,13,3,55,3,,,,,128.54844130016863,,128.536336600082,128.54844130016863,129.53524860017933,129.53524860017933,129.53524860017933,129.53524860017933,129.55005219997838,130.53467060020193,130.53467060020193,130.79282249999233,z,1,0.2530056999530643,None,,,,,04,001,2025-10-02_11h26.52.613,Motor Sequential Learning,,2025.1.1,72.94887807643727,2025-10-02 11h26.58.698852 +0530,
-50,x,56,0,14,x,1,0.2441588998772204,None,14,0,56,0,,,,,130.80613910011016,,130.79359580017626,130.80613910011016,131.79926950018853,131.79926950018853,131.79926950018853,131.79926950018853,131.81303520011716,132.79912029998377,132.79912029998377,133.0572699001059,x,1,0.2441588998772204,None,,,,,04,001,2025-10-02_11h26.52.613,Motor Sequential Learning,,2025.1.1,72.94887807643727,2025-10-02 11h26.58.698852 +0530,
150,v,57,1,14,v,1,0.20552359987050295,None,14,1,57,1,,,,,133.06994240009226,,133.05825370014645,133.06994240009226,134.05061869998462,134.05061869998462,134.05061869998462,134.05061869998462,134.07719860016368,135.06315500009805,135.06315500009805,135.27862770017236,v,1,0.20552359987050295,None,,,,,04,001,2025-10-02_11h26.52.613,Motor Sequential Learning,,2025.1.1,72.94887807643727,2025-10-02 11h26.58.698852 +0530,
50,c,58,2,14,c,1,0.22868469986133277,None,14,2,58,2,,,,,135.29173530009575,,135.27909570001066,135.29173530009575,136.27329570008442,136.27329570008442,136.27329570008442,136.27329570008442,136.29918360011652,137.27897670003586,137.27897670003586,137.50863649998792,c,1,0.22868469986133277,None,,,,,04,001,2025-10-02_11h26.52.613,Motor Sequential Learning,,2025.1.1,72.94887807643727,2025-10-02 11h26.58.698852 +0530,
-150,z,59,3,14,z,1,0.27278450015001,None,14,3,59,3,,,,,137.5207194001414,,137.50933340005577,137.5207194001414,138.50769680016674,138.50769680016674,138.50769680016674,138.50769680016674,138.52206350001507,139.50703540001996,139.50703540001996,139.79308710014448,z,1,0.27278450015001,None,,,,,04,001,2025-10-02_11h26.52.613,Motor Sequential Learning,,2025.1.1,72.94887807643727,2025-10-02 11h26.58.698852 +0530,
-50,x,60,0,15,x,1,0.22135060001164675,None,15,0,60,0,,,,,139.8065918001812,,139.7935841002036,139.8065918001812,140.79939370020293,140.79939370020293,140.79939370020293,140.79939370020293,140.81300720013678,141.7992147000041,141.7992147000041,142.02272040001117,x,1,0.22135060001164675,None,,,,,04,001,2025-10-02_11h26.52.613,Motor Sequential Learning,,2025.1.1,72.94887807643727,2025-10-02 11h26.58.698852 +0530,
150,v,61,1,15,v,1,0.25599049986340106,None,15,1,61,1,,,,,142.03552819998004,,142.02318920008838,142.03552819998004,143.02851069997996,143.02851069997996,143.02851069997996,143.02851069997996,143.04218220012262,144.0213551002089,144.0213551002089,144.27985400008038,v,1,0.25599049986340106,None,,,,,04,001,2025-10-02_11h26.52.613,Motor Sequential Learning,,2025.1.1,72.94887807643727,2025-10-02 11h26.58.698852 +0530,
50,c,62,2,15,c,1,0.24118550005368888,None,15,2,62,2,,,,,144.292226199992,,144.2803799000103,144.292226199992,145.2854862001259,145.2854862001259,145.2854862001259,145.2854862001259,145.29892480000854,146.27874390012585,146.27874390012585,146.5228577000089,c,1,0.24118550005368888,None,,,,,04,001,2025-10-02_11h26.52.613,Motor Sequential Learning,,2025.1.1,72.94887807643727,2025-10-02 11h26.58.698852 +0530,
-150,z,63,3,15,z,1,0.26952309999614954,None,15,3,63,3,,,,,146.5353441000916,,146.5236564001534,146.5353441000916,147.5214541000314,147.5214541000314,147.5214541000314,147.5214541000314,147.5355884002056,148.52160450001247,148.52160450001247,148.8003117002081,z,1,0.26952309999614954,None,,,,,04,001,2025-10-02_11h26.52.613,Motor Sequential Learning,,2025.1.1,72.94887807643727,2025-10-02 11h26.58.698852 +0530,
-50,x,64,0,16,x,1,0.25201840000227094,None,16,0,64,0,,,,,148.8135238001123,,148.8010900001973,148.8135238001123,149.79950299998745,149.79950299998745,149.79950299998745,149.79950299998745,149.81349810003303,150.80608380003832,150.80608380003832,151.07036650017835,x,1,0.25201840000227094,None,,,,,04,001,2025-10-02_11h26.52.613,Motor Sequential Learning,,2025.1.1,72.94887807643727,2025-10-02 11h26.58.698852 +0530,
150,v,65,1,16,v,1,0.2631202000193298,None,16,1,65,1,,,,,151.07854820019566,,151.0708856000565,151.07854820019566,152.07004900020547,152.07004900020547,152.07004900020547,152.07004900020547,152.07872540014796,153.0772648002021,153.0772648002021,153.34919119998813,v,1,0.2631202000193298,None,,,,,04,001,2025-10-02_11h26.52.613,Motor Sequential Learning,,2025.1.1,72.94887807643727,2025-10-02 11h26.58.698852 +0530,
50,c,66,2,16,c,1,0.32035610009916127,None,16,2,66,2,,,,,153.3617390000727,,153.34954950003885,153.3617390000727,154.35496470006183,154.35496470006183,154.35496470006183,154.35496470006183,154.3687464001123,155.34792440012097,155.34792440012097,155.66935330000706,c,1,0.32035610009916127,None,,,,,04,001,2025-10-02_11h26.52.613,Motor Sequential Learning,,2025.1.1,72.94887807643727,2025-10-02 11h26.58.698852 +0530,
-150,z,67,3,16,z,1,0.27193399984389544,None,16,3,67,3,,,,,155.68134660017677,,155.66967270011082,155.68134660017677,156.6745583000593,156.6745583000593,156.6745583000593,156.6745583000593,156.6882139001973,157.66756580001675,157.66756580001675,157.94585020001978,z,1,0.27193399984389544,None,,,,,04,001,2025-10-02_11h26.52.613,Motor Sequential Learning,,2025.1.1,72.94887807643727,2025-10-02 11h26.58.698852 +0530,
-50,x,68,0,17,x,1,0.10937749990262091,None,17,0,68,0,,,,,157.95927150011994,,157.94630800001323,157.95927150011994,158.94515310018323,158.94515310018323,158.94515310018323,158.94515310018323,158.95381880016066,159.95259460015222,159.95259460015222,160.07049660012126,x,1,0.10937749990262091,None,,,,,04,001,2025-10-02_11h26.52.613,Motor Sequential Learning,,2025.1.1,72.94887807643727,2025-10-02 11h26.58.698852 +0530,
150,v,69,1,17,v,1,0.22672230005264282,None,17,1,69,1,,,,,160.08449190016836,,160.07097950018942,160.08449190016836,161.07001100014895,161.07001100014895,161.07001100014895,161.07001100014895,161.08426060015336,162.07719300012104,162.07719300012104,162.31366360001266,v,1,0.22672230005264282,None,,,,,04,001,2025-10-02_11h26.52.613,Motor Sequential Learning,,2025.1.1,72.94887807643727,2025-10-02 11h26.58.698852 +0530,
50,c,70,2,17,c,1,0.21054959995672107,None,17,2,70,2,,,,,162.3273706000764,,162.31411819998175,162.3273706000764,163.31356430007145,163.31356430007145,163.31356430007145,163.31356430007145,163.32741110003553,164.31367860012688,164.31367860012688,164.53660470014438,c,1,0.21054959995672107,None,,,,,04,001,2025-10-02_11h26.52.613,Motor Sequential Learning,,2025.1.1,72.94887807643727,2025-10-02 11h26.58.698852 +0530,
-150,z,71,3,17,z,1,0.25113540003076196,None,17,3,71,3,,,,,164.54968900000677,,164.53715590015054,164.54968900000677,165.53569950000383,165.53569950000383,165.53569950000383,165.53569950000383,165.5491808000952,166.54233060008846,166.54233060008846,166.80044280015863,z,1,0.25113540003076196,None,,,,,04,001,2025-10-02_11h26.52.613,Motor Sequential Learning,,2025.1.1,72.94887807643727,2025-10-02 11h26.58.698852 +0530,
-50,x,72,0,18,x,1,0.25799389998428524,None,18,0,72,0,,,,,166.81369790015742,,166.80116230016574,166.81369790015742,167.7994372001849,167.7994372001849,167.7994372001849,167.7994372001849,167.80801949999295,168.79938370012678,168.79938370012678,169.07091350015253,x,1,0.25799389998428524,None,,,,,04,001,2025-10-02_11h26.52.613,Motor Sequential Learning,,2025.1.1,72.94887807643727,2025-10-02 11h26.58.698852 +0530,
150,v,73,1,18,v,1,0.3012938001193106,None,18,1,73,1,,,,,169.08440370019525,,169.0714175000321,169.08440370019525,170.07051470014267,170.07051470014267,170.07051470014267,170.07051470014267,170.08468520012684,171.0706753002014,171.0706753002014,171.37741610012017,v,1,0.3012938001193106,None,,,,,04,001,2025-10-02_11h26.52.613,Motor Sequential Learning,,2025.1.1,72.94887807643727,2025-10-02 11h26.58.698852 +0530,
50,c,74,2,18,c,1,0.20447290013544261,None,18,2,74,2,,,,,171.3901441001799,,171.3786173001863,171.3901441001799,172.3780247999821,172.3780247999821,172.3780247999821,172.3780247999821,172.3898920000065,173.38286550017074,173.38286550017074,173.5989287002012,c,1,0.20447290013544261,None,,,,,04,001,2025-10-02_11h26.52.613,Motor Sequential Learning,,2025.1.1,72.94887807643727,2025-10-02 11h26.58.698852 +0530,
-150,z,75,3,18,z,1,0.24708420014940202,None,18,3,75,3,,,,,173.61221590009518,,173.59955290006474,173.61221590009518,174.59858690015972,174.59858690015972,174.59858690015972,174.59858690015972,174.61195030016825,175.60014200001024,175.60014200001024,175.85014240001328,z,1,0.24708420014940202,None,,,,,04,001,2025-10-02_11h26.52.613,Motor Sequential Learning,,2025.1.1,72.94887807643727,2025-10-02 11h26.58.698852 +0530,
-50,x,76,0,19,x,1,0.2477289999369532,None,19,0,76,0,,,,,175.86204829998314,,175.85056560020894,175.86204829998314,176.85554410004988,176.85554410004988,176.85554410004988,176.85554410004988,176.86936190002598,177.85587249998935,177.85587249998935,178.11237540002912,x,1,0.2477289999369532,None,,,,,04,001,2025-10-02_11h26.52.613,Motor Sequential Learning,,2025.1.1,72.94887807643727,2025-10-02 11h26.58.698852 +0530,
150,v,77,1,19,v,1,0.23623709985986352,None,19,1,77,1,,,,,178.12548630009405,,178.11273630009964,178.12548630009405,179.1121965001803,179.1121965001803,179.1121965001803,179.1121965001803,179.12627150001936,180.11233240016736,180.11233240016736,180.3633302000817,v,1,0.23623709985986352,None,,,,,04,001,2025-10-02_11h26.52.613,Motor Sequential Learning,,2025.1.1,72.94887807643727,2025-10-02 11h26.58.698852 +0530,
50,c,78,2,19,c,1,0.2579191999975592,None,19,2,78,2,,,,,180.37621330004185,,180.36402090010233,180.37621330004185,181.3617238001898,181.3617238001898,181.3617238001898,181.3617238001898,181.36995210009627,182.3691534001846,182.3691534001846,182.63369909999892,c,1,0.2579191999975592,None,,,,,04,001,2025-10-02_11h26.52.613,Motor Sequential Learning,,2025.1.1,72.94887807643727,2025-10-02 11h26.58.698852 +0530,
-150,z,79,3,19,z,1,0.24882160010747612,None,19,3,79,3,,,,,182.6471121001523,,182.63422650005668,182.6471121001523,183.6284483000636,183.6284483000636,183.6284483000636,183.6284483000636,183.6485294001177,184.63365250010975,184.63365250010975,184.89054520009086,z,1,0.24882160010747612,None,,,,,04,001,2025-10-02_11h26.52.613,Motor Sequential Learning,,2025.1.1,72.94887807643727,2025-10-02 11h26.58.698852 +0530,
-50,x,80,0,20,x,1,0.22395110013894737,None,20,0,80,0,,,,,184.9038708000444,,184.89093410014175,184.9038708000444,185.89728360017762,185.89728360017762,185.89728360017762,185.89728360017762,185.91095220018178,186.88419140013866,186.88419140013866,187.11358050000854,x,1,0.22395110013894737,None,,,,,04,001,2025-10-02_11h26.52.613,Motor Sequential Learning,,2025.1.1,72.94887807643727,2025-10-02 11h26.58.698852 +0530,
150,v,81,1,20,v,1,0.24196219979785383,None,20,1,81,1,,,,,187.12552640005015,,187.11378810019232,187.12552640005015,188.1123183001764,188.1123183001764,188.1123183001764,188.1123183001764,188.12629090016708,189.11260460014455,189.11260460014455,189.3561352000106,v,1,0.24196219979785383,None,,,,,04,001,2025-10-02_11h26.52.613,Motor Sequential Learning,,2025.1.1,72.94887807643727,2025-10-02 11h26.58.698852 +0530,
50,c,82,2,20,c,1,0.2389728999696672,None,20,2,82,2,,,,,189.3694837000221,,189.35656179999933,189.3694837000221,190.35572009999305,190.35572009999305,190.35572009999305,190.35572009999305,190.3698521000333,191.35540240001865,191.35540240001865,191.60584120010026,c,1,0.2389728999696672,None,,,,,04,001,2025-10-02_11h26.52.613,Motor Sequential Learning,,2025.1.1,72.94887807643727,2025-10-02 11h26.58.698852 +0530,
-150,z,83,3,20,z,1,0.2399240001104772,None,20,3,83,3,,,,,191.61382670002058,,191.6062923001591,191.61382670002058,192.60576210008003,192.60576210008003,192.60576210008003,192.60576210008003,192.61942090000957,193.60625220020302,193.60625220020302,193.85629340005107,z,1,0.2399240001104772,None,,,,,04,001,2025-10-02_11h26.52.613,Motor Sequential Learning,,2025.1.1,72.94887807643727,2025-10-02 11h26.58.698852 +0530,
-50,x,84,0,21,x,1,0.3009384998586029,None,21,0,84,0,,,,,193.8693777001463,,193.8567402001936,193.8693777001463,194.84875260014087,194.84875260014087,194.84875260014087,194.84875260014087,194.86270240019076,195.86271190014668,195.86271190014668,196.17547770007513,x,1,0.3009384998586029,None,,,,,04,001,2025-10-02_11h26.52.613,Motor Sequential Learning,,2025.1.1,72.94887807643727,2025-10-02 11h26.58.698852 +0530,
150,v,85,1,21,v,1,0.1737363999709487,None,21,1,85,1,,,,,196.18884479999542,,196.1759099001065,196.18884479999542,197.17517150007188,197.17517150007188,197.17517150007188,197.17517150007188,197.1890281001106,198.17474679998122,198.17474679998122,198.35050650010817,v,1,0.1737363999709487,None,,,,,04,001,2025-10-02_11h26.52.613,Motor Sequential Learning,,2025.1.1,72.94887807643727,2025-10-02 11h26.58.698852 +0530,
50,c,86,2,21,c,1,0.30335710011422634,None,21,2,86,2,,,,,198.36234480002895,,198.35133840003982,198.36234480002895,199.34920300007798,199.34920300007798,199.34920300007798,199.34920300007798,199.36240570014343,200.3560349000618,200.3560349000618,200.66861749999225,c,1,0.30335710011422634,None,,,,,04,001,2025-10-02_11h26.52.613,Motor Sequential Learning,,2025.1.1,72.94887807643727,2025-10-02 11h26.58.698852 +0530,
-150,z,87,3,21,z,1,0.192910399986431,None,21,3,87,3,,,,,200.68205599999055,,200.66901489999145,200.68205599999055,201.66973120020702,201.66973120020702,201.66973120020702,201.66973120020702,201.68220580019988,202.67519850004464,202.67519850004464,202.87184500019066,z,1,0.192910399986431,None,,,,,04,001,2025-10-02_11h26.52.613,Motor Sequential Learning,,2025.1.1,72.94887807643727,2025-10-02 11h26.58.698852 +0530,
-50,x,88,0,22,x,1,0.23947490006685257,None,22,0,88,0,,,,,202.883325900184,,202.87219850020483,202.883325900184,203.8766059000045,203.8766059000045,203.8766059000045,203.8766059000045,203.8905327001121,204.87662710016593,204.87662710016593,205.12742200004868,x,1,0.23947490006685257,None,,,,,04,001,2025-10-02_11h26.52.613,Motor Sequential Learning,,2025.1.1,72.94887807643727,2025-10-02 11h26.58.698852 +0530,
150,v,89,1,22,v,1,0.35674900002777576,None,22,1,89,1,,,,,205.14058500016108,,205.12798250000924,205.14058500016108,206.12663940014318,206.12663940014318,206.12663940014318,206.12663940014318,206.14042240008712,207.12698900001124,207.12698900001124,207.49530890001915,v,1,0.35674900002777576,None,,,,,04,001,2025-10-02_11h26.52.613,Motor Sequential Learning,,2025.1.1,72.94887807643727,2025-10-02 11h26.58.698852 +0530,
50,c,90,2,22,c,1,0.220451699802652,None,22,2,90,2,,,,,207.50326040014625,,207.4956845000852,207.50326040014625,208.49487160006538,208.49487160006538,208.49487160006538,208.49487160006538,208.5086922000628,209.49438140005805,209.49438140005805,209.71870300010778,c,1,0.220451699802652,None,,,,,04,001,2025-10-02_11h26.52.613,Motor Sequential Learning,,2025.1.1,72.94887807643727,2025-10-02 11h26.58.698852 +0530,
-150,z,91,3,22,z,1,0.24128159997053444,None,22,3,91,3,,,,,209.73050850001164,,209.71909450017847,209.73050850001164,210.710469200043,210.710469200043,210.710469200043,210.710469200043,210.72420120006427,211.71814920008183,211.71814920008183,211.9675454001408,z,1,0.24128159997053444,None,,,,,04,001,2025-10-02_11h26.52.613,Motor Sequential Learning,,2025.1.1,72.94887807643727,2025-10-02 11h26.58.698852 +0530,
-50,x,92,0,23,x,1,0.2539917000103742,None,23,0,92,0,,,,,211.98043290013447,,211.96817610017024,211.98043290013447,212.96707850019448,212.96707850019448,212.96707850019448,212.96707850019448,212.9806189001538,213.9664036000613,213.9664036000613,214.22494640015066,x,1,0.2539917000103742,None,,,,,04,001,2025-10-02_11h26.52.613,Motor Sequential Learning,,2025.1.1,72.94887807643727,2025-10-02 11h26.58.698852 +0530,
150,v,93,1,23,v,1,0.19201899995096028,None,23,1,93,1,,,,,214.23790760012344,,214.22555000009015,214.23790760012344,215.22449490008876,215.22449490008876,215.22449490008876,215.22449490008876,215.2381341001019,216.22372410004027,216.22372410004027,216.4196013000328,v,1,0.19201899995096028,None,,,,,04,001,2025-10-02_11h26.52.613,Motor Sequential Learning,,2025.1.1,72.94887807643727,2025-10-02 11h26.58.698852 +0530,
50,c,94,2,23,c,1,0.24424040014855564,None,23,2,94,2,,,,,216.43203720008023,,216.42000520019792,216.43203720008023,217.4252778000664,217.4252778000664,217.4252778000664,217.4252778000664,217.43407479999587,218.41862910008058,218.41862910008058,218.6763743001502,c,1,0.24424040014855564,None,,,,,04,001,2025-10-02_11h26.52.613,Motor Sequential Learning,,2025.1.1,72.94887807643727,2025-10-02 11h26.58.698852 +0530,
-150,z,95,3,23,z,1,0.2246177000924945,None,23,3,95,3,,,,,218.68959020008333,,218.67711460008286,218.68959020008333,219.67541510006413,219.67541510006413,219.67541510006413,219.67541510006413,219.6892330001574,220.68292150017805,220.68292150017805,220.91296670003794,z,1,0.2246177000924945,None,,,,,04,001,2025-10-02_11h26.52.613,Motor Sequential Learning,,2025.1.1,72.94887807643727,2025-10-02 11h26.58.698852 +0530,
-50,x,96,0,24,x,1,0.23564349999651313,None,24,0,96,0,,,,,220.92523170006461,,220.91344809997827,220.92523170006461,221.91138790012337,221.91138790012337,221.91138790012337,221.91138790012337,221.92532280017622,222.9110497001093,222.9110497001093,223.14774350007065,x,1,0.23564349999651313,None,,,,,04,001,2025-10-02_11h26.52.613,Motor Sequential Learning,,2025.1.1,72.94887807643727,2025-10-02 11h26.58.698852 +0530,
150,v,97,1,24,v,1,0.18990570004098117,None,24,1,97,1,,,,,223.15533199999481,,223.14811320020817,223.15533199999481,224.14212440000847,224.14212440000847,224.14212440000847,224.14212440000847,224.15458940016106,225.14795250003226,225.14795250003226,225.34278250019997,v,1,0.18990570004098117,None,,,,,04,001,2025-10-02_11h26.52.613,Motor Sequential Learning,,2025.1.1,72.94887807643727,2025-10-02 11h26.58.698852 +0530,
50,c,98,2,24,c,1,0.2135453000664711,None,24,2,98,2,,,,,225.35600170004182,,225.34319990011863,225.35600170004182,226.3421819000505,226.3421819000505,226.3421819000505,226.3421819000505,226.3561213000212,227.34916630014777,227.34916630014777,227.56506160018034,c,1,0.2135453000664711,None,,,,,04,001,2025-10-02_11h26.52.613,Motor Sequential Learning,,2025.1.1,72.94887807643727,2025-10-02 11h26.58.698852 +0530,
-150,z,99,3,24,z,1,0.28810270014218986,None,24,3,99,3,,,,,227.57809150009416,,227.565618700115,227.57809150009416,228.5577622000128,228.5577622000128,228.5577622000128,228.5577622000128,228.57153700012714,229.56341010006145,229.56341010006145,229.85805799998343,z,1,0.28810270014218986,None,,,,,04,001,2025-10-02_11h26.52.613,Motor Sequential Learning,,2025.1.1,72.94887807643727,2025-10-02 11h26.58.698852 +0530,
-50,x,100,0,25,x,1,0.09332629991695285,None,25,0,100,0,,,,,229.87025770009495,,229.85847790003754,229.87025770009495,230.86334959999658,230.86334959999658,230.86334959999658,230.86334959999658,230.87734910007566,231.86271420004778,231.86271420004778,231.96077490015887,x,1,0.09332629991695285,None,,,,,04,001,2025-10-02_11h26.52.613,Motor Sequential Learning,,2025.1.1,72.94887807643727,2025-10-02 11h26.58.698852 +0530,
150,v,101,1,25,v,1,0.1769656001124531,None,25,1,101,1,,,,,231.9740909000393,,231.96132800006308,231.9740909000393,232.9671822001692,232.9671822001692,232.9671822001692,232.9671822001692,232.97618970018812,233.96036400017329,233.96036400017329,234.14837460010312,v,1,0.1769656001124531,None,,,,,04,001,2025-10-02_11h26.52.613,Motor Sequential Learning,,2025.1.1,72.94887807643727,2025-10-02 11h26.58.698852 +0530,
50,c,102,2,25,c,1,0.22396630002185702,None,25,2,102,2,,,,,234.16165060014464,,234.14897470013238,234.16165060014464,235.14138360018842,235.14138360018842,235.14138360018842,235.14138360018842,235.1551248000469,236.14767229999416,236.14767229999416,236.38508440018632,c,1,0.22396630002185702,None,,,,,04,001,2025-10-02_11h26.52.613,Motor Sequential Learning,,2025.1.1,72.94887807643727,2025-10-02 11h26.58.698852 +0530,
-150,z,103,3,25,z,1,0.25845459988340735,None,25,3,103,3,,,,,236.39819060009904,,236.38579270010814,236.39819060009904,237.38412000006065,237.38412000006065,237.38412000006065,237.38412000006065,237.39816310000606,238.38399810018018,238.38399810018018,238.64864480006509,z,1,0.25845459988340735,None,,,,,04,001,2025-10-02_11h26.52.613,Motor Sequential Learning,,2025.1.1,72.94887807643727,2025-10-02 11h26.58.698852 +0530,
-50,x,104,0,26,x,1,0.18685179995372891,None,26,0,104,0,,,,,238.66164540010504,,238.64931780006737,238.66164540010504,239.6422535001766,239.6422535001766,239.6422535001766,239.6422535001766,239.66341900010593,240.65469350013882,240.65469350013882,240.85028370004147,x,1,0.18685179995372891,None,,,,,04,001,2025-10-02_11h26.52.613,Motor Sequential Learning,,2025.1.1,72.94887807643727,2025-10-02 11h26.58.698852 +0530,
150,v,105,1,26,v,1,0.23547379998490214,None,26,1,105,1,,,,,240.86319430009462,,240.8509949001018,240.86319430009462,241.84902349999174,241.84902349999174,241.84902349999174,241.84902349999174,241.86281289998442,242.8558054000605,242.8558054000605,243.09371890011244,v,1,0.23547379998490214,None,,,,,04,001,2025-10-02_11h26.52.613,Motor Sequential Learning,,2025.1.1,72.94887807643727,2025-10-02 11h26.58.698852 +0530,
50,c,106,2,26,c,1,0.1831984999589622,None,26,2,106,2,,,,,243.1062631001696,,243.0942471001763,243.1062631001696,244.09239310002886,244.09239310002886,244.09239310002886,244.09239310002886,244.10133500001393,245.09266349999234,245.09266349999234,245.28085870016366,c,1,0.1831984999589622,None,,,,,04,001,2025-10-02_11h26.52.613,Motor Sequential Learning,,2025.1.1,72.94887807643727,2025-10-02 11h26.58.698852 +0530,
-150,z,107,3,26,z,1,0.25292449980042875,None,26,3,107,3,,,,,245.29389240010642,,245.28135760012083,245.29389240010642,246.27446710015647,246.27446710015647,246.27446710015647,246.27446710015647,246.29552260017954,247.27962190005928,247.27962190005928,247.53729760018177,z,1,0.25292449980042875,None,,,,,04,001,2025-10-02_11h26.52.613,Motor Sequential Learning,,2025.1.1,72.94887807643727,2025-10-02 11h26.58.698852 +0530,
-50,x,108,0,27,x,1,0.14262470020912588,None,27,0,108,0,,,,,247.55076180002652,,247.53768050018698,247.55076180002652,248.53840190009214,248.53840190009214,248.53840190009214,248.53840190009214,248.55065390001982,249.54358390020207,249.54358390020207,249.69730440014973,x,1,0.14262470020912588,None,,,,,04,001,2025-10-02_11h26.52.613,Motor Sequential Learning,,2025.1.1,72.94887807643727,2025-10-02 11h26.58.698852 +0530,
150,v,109,1,27,v,1,0.0618771999143064,None,27,1,109,1,,,,,249.71027510007843,,249.69772240007296,249.71027510007843,250.6967441001907,250.6967441001907,250.6967441001907,250.6967441001907,250.71028750017285,251.6965744001791,251.6965744001791,251.7668612000998,v,1,0.0618771999143064,None,,,,,04,001,2025-10-02_11h26.52.613,Motor Sequential Learning,,2025.1.1,72.94887807643727,2025-10-02 11h26.58.698852 +0530,
50,c,110,2,27,c,1,0.27320709987543523,None,27,2,110,2,,,,,251.77976400009356,,251.76723850006238,251.77976400009356,252.7659816001542,252.7659816001542,252.7659816001542,252.7659816001542,252.7801642001141,253.77302259998396,253.77302259998396,254.05142160016112,c,1,0.27320709987543523,None,,,,,04,001,2025-10-02_11h26.52.613,Motor Sequential Learning,,2025.1.1,72.94887807643727,2025-10-02 11h26.58.698852 +0530,
-150,z,111,3,27,z,1,0.20429270016029477,None,27,3,111,3,,,,,254.06512660020962,,254.05193940014578,254.06512660020962,255.05114960018545,255.05114960018545,255.05114960018545,255.05114960018545,255.06426080013625,256.0520985000767,256.0520985000767,256.2667751000263,z,1,0.20429270016029477,None,,,,,04,001,2025-10-02_11h26.52.613,Motor Sequential Learning,,2025.1.1,72.94887807643727,2025-10-02 11h26.58.698852 +0530,
-50,x,112,0,28,x,1,0.24085049983114004,None,28,0,112,0,,,,,256.28021700005047,,256.2673290001694,256.28021700005047,257.2736605000682,257.2736605000682,257.2736605000682,257.2736605000682,257.287344600074,258.2731791001279,258.2731791001279,258.52469720016234,x,1,0.24085049983114004,None,,,,,04,001,2025-10-02_11h26.52.613,Motor Sequential Learning,,2025.1.1,72.94887807643727,2025-10-02 11h26.58.698852 +0530,
150,v,113,1,28,v,1,0.22966909990645945,None,28,1,113,1,,,,,258.5369741001632,,258.5253700001631,258.5369741001632,259.52315180003643,259.52315180003643,259.52315180003643,259.52315180003643,259.53753490000963,260.5233824001625,260.5233824001625,260.76668980019167,v,1,0.22966909990645945,None,,,,,04,001,2025-10-02_11h26.52.613,Motor Sequential Learning,,2025.1.1,72.94887807643727,2025-10-02 11h26.58.698852 +0530,
50,c,114,2,28,c,1,0.02387450006790459,None,28,2,114,2,,,,,260.7750805001706,,260.76714390004054,260.7750805001706,261.7662677001208,261.7662677001208,261.7662677001208,261.7662677001208,261.78014540020376,262.76628830004483,262.76628830004483,262.7951641001273,c,1,0.02387450006790459,None,,,,,04,001,2025-10-02_11h26.52.613,Motor Sequential Learning,,2025.1.1,72.94887807643727,2025-10-02 11h26.58.698852 +0530,
-150,z,115,3,28,z,1,0.2325959000736475,None,28,3,115,3,,,,,262.8079985000659,,262.79581780009903,262.8079985000659,263.8008079000283,263.8008079000283,263.8008079000283,263.8008079000283,263.80963840009645,264.7940723001957,264.7940723001957,265.03790350002237,z,1,0.2325959000736475,None,,,,,04,001,2025-10-02_11h26.52.613,Motor Sequential Learning,,2025.1.1,72.94887807643727,2025-10-02 11h26.58.698852 +0530,
-50,x,116,0,29,x,1,0.16555040003731847,None,29,0,116,0,,,,,265.0510427001864,,265.03864430007525,265.0510427001864,266.0438546000514,266.0438546000514,266.0438546000514,266.0438546000514,266.05274510011077,267.0371826000046,267.0371826000046,267.2048841000069,x,1,0.16555040003731847,None,,,,,04,001,2025-10-02_11h26.52.613,Motor Sequential Learning,,2025.1.1,72.94887807643727,2025-10-02 11h26.58.698852 +0530,
150,v,117,1,29,v,1,0.21133969980292022,None,29,1,117,1,,,,,267.2175656000618,,267.2053604000248,267.2175656000618,268.2039165000897,268.2039165000897,268.2039165000897,268.2039165000897,268.21750280004926,269.2110477001406,269.2110477001406,269.43428580020554,v,1,0.21133969980292022,None,,,,,04,001,2025-10-02_11h26.52.613,Motor Sequential Learning,,2025.1.1,72.94887807643727,2025-10-02 11h26.58.698852 +0530,
50,c,118,2,29,c,1,0.2240764000453055,None,29,2,118,2,,,,,269.4474617000669,,269.43480679998174,269.4474617000669,270.43434360018,270.43434360018,270.43434360018,270.43434360018,270.44678660016507,271.4324481000658,271.4324481000658,271.66977740009315,c,1,0.2240764000453055,None,,,,,04,001,2025-10-02_11h26.52.613,Motor Sequential Learning,,2025.1.1,72.94887807643727,2025-10-02 11h26.58.698852 +0530,
-150,z,119,3,29,z,1,0.2226303000934422,None,29,3,119,3,,,,,271.6832370001357,,271.67035750020295,271.6832370001357,272.6693237000145,272.6693237000145,272.6693237000145,272.6693237000145,272.68314140010625,273.6691519001033,273.6691519001033,273.8992347000167,z,1,0.2226303000934422,None,,,,,04,001,2025-10-02_11h26.52.613,Motor Sequential Learning,,2025.1.1,72.94887807643727,2025-10-02 11h26.58.698852 +0530,
-50,x,120,0,30,x,1,0.2094155999366194,None,30,0,120,0,,,,,273.9120638000313,,273.89974969998,273.9120638000313,274.90010000020266,274.90010000020266,274.90010000020266,274.90010000020266,274.91208210005425,275.8979058000259,275.8979058000259,276.1145101999864,x,1,0.2094155999366194,None,,,,,04,001,2025-10-02_11h26.52.613,Motor Sequential Learning,,2025.1.1,72.94887807643727,2025-10-02 11h26.58.698852 +0530,
150,v,121,1,30,v,1,0.10704200016334653,None,30,1,121,1,,,,,276.1269247001037,,276.11500450014137,276.1269247001037,277.11381540005095,277.11381540005095,277.11381540005095,277.11381540005095,277.12758460012265,278.1137226000428,278.1137226000428,278.2324750002008,v,1,0.10704200016334653,None,,,,,04,001,2025-10-02_11h26.52.613,Motor Sequential Learning,,2025.1.1,72.94887807643727,2025-10-02 11h26.58.698852 +0530,
50,c,122,2,30,c,1,0.24144300003536046,None,30,2,122,2,,,,,278.2454737999942,,278.23301140009426,278.2454737999942,279.238664300181,279.238664300181,279.238664300181,279.238664300181,279.2470449001994,280.2386962000746,280.2386962000746,280.4824467001017,c,1,0.24144300003536046,None,,,,,04,001,2025-10-02_11h26.52.613,Motor Sequential Learning,,2025.1.1,72.94887807643727,2025-10-02 11h26.58.698852 +0530,
-150,z,123,3,30,z,1,0.2671922000590712,None,30,3,123,3,,,,,280.4954948001541,,280.48290850012563,280.4954948001541,281.48186990013346,281.48186990013346,281.48186990013346,281.48186990013346,281.4960086001083,282.4758612001315,282.4758612001315,282.7465002001263,z,1,0.2671922000590712,None,,,,,04,001,2025-10-02_11h26.52.613,Motor Sequential Learning,,2025.1.1,72.94887807643727,2025-10-02 11h26.58.698852 +0530,
-50,x,124,0,31,x,1,0.19663410005159676,None,31,0,124,0,,,,,282.75866080005653,,282.7469570999965,282.75866080005653,283.7457075000275,283.7457075000275,283.7457075000275,283.7457075000275,283.7598792000208,284.73904210003093,284.73904210003093,284.9408826001454,x,1,0.19663410005159676,None,,,,,04,001,2025-10-02_11h26.52.613,Motor Sequential Learning,,2025.1.1,72.94887807643727,2025-10-02 11h26.58.698852 +0530,
150,v,125,1,31,v,1,0.10500029986724257,None,31,1,125,1,,,,,284.9541907000821,,284.9413879001513,284.9541907000821,285.9401872002054,285.9401872002054,285.9401872002054,285.9401872002054,285.94902670010924,286.94064220017754,286.94064220017754,287.05129390000366,v,1,0.10500029986724257,None,,,,,04,001,2025-10-02_11h26.52.613,Motor Sequential Learning,,2025.1.1,72.94887807643727,2025-10-02 11h26.58.698852 +0530,
50,c,126,2,31,c,1,0.19763440010137856,None,31,2,126,2,,,,,287.0596473000478,,287.0516498000361,287.0596473000478,288.0514071001671,288.0514071001671,288.0514071001671,288.0514071001671,288.0662329001352,289.05818670010194,289.05818670010194,289.2592031999957,c,1,0.19763440010137856,None,,,,,04,001,2025-10-02_11h26.52.613,Motor Sequential Learning,,2025.1.1,72.94887807643727,2025-10-02 11h26.58.698852 +0530,
-150,z,127,3,31,z,1,0.27250960003584623,None,31,3,127,3,,,,,289.2669534001034,,289.25953560019843,289.2669534001034,290.25920219998807,290.25920219998807,290.25920219998807,290.25920219998807,290.27394950017333,291.26010369998403,291.26010369998403,291.54479060019366,z,1,0.27250960003584623,None,,,,,04,001,2025-10-02_11h26.52.613,Motor Sequential Learning,,2025.1.1,72.94887807643727,2025-10-02 11h26.58.698852 +0530,
-50,x,128,0,32,x,1,0.14058199990540743,None,32,0,128,0,,,,,291.5525183000136,,291.54512520018034,291.5525183000136,292.5441745000426,292.5441745000426,292.5441745000426,292.5441745000426,292.5526441000402,293.54430710012093,293.54430710012093,293.69812060007825,x,1,0.14058199990540743,None,,,,,04,001,2025-10-02_11h26.52.613,Motor Sequential Learning,,2025.1.1,72.94887807643727,2025-10-02 11h26.58.698852 +0530,
150,v,129,1,32,v,1,0.2408296000212431,None,32,1,129,1,,,,,293.71138870017603,,293.6988618001342,293.71138870017603,294.7042265001219,294.7042265001219,294.7042265001219,294.7042265001219,294.7126774000935,295.6972310000565,295.6972310000565,295.9476713000331,v,1,0.2408296000212431,None,,,,,04,001,2025-10-02_11h26.52.613,Motor Sequential Learning,,2025.1.1,72.94887807643727,2025-10-02 11h26.58.698852 +0530,
50,c,130,2,32,c,1,0.22755230008624494,None,32,2,130,2,,,,,295.9612343001645,,295.9480485999957,295.9612343001645,296.947302200133,296.947302200133,296.947302200133,296.947302200133,296.95615980005823,297.947548000142,297.947548000142,298.1841721001547,c,1,0.22755230008624494,None,,,,,04,001,2025-10-02_11h26.52.613,Motor Sequential Learning,,2025.1.1,72.94887807643727,2025-10-02 11h26.58.698852 +0530,
-150,z,131,3,32,z,1,0.24171670014038682,None,32,3,131,3,,,,,298.1969886000734,,298.1845945001114,298.1969886000734,299.1904063001275,299.1904063001275,299.1904063001275,299.1904063001275,299.2042851001024,300.1903362001758,300.1903362001758,300.4408146000933,z,1,0.24171670014038682,None,,,,,04,001,2025-10-02_11h26.52.613,Motor Sequential Learning,,2025.1.1,72.94887807643727,2025-10-02 11h26.58.698852 +0530,
-50,x,132,0,33,x,1,0.21499500004574656,None,33,0,132,0,,,,,300.45405160007067,,300.4412440001033,300.45405160007067,301.4403685000725,301.4403685000725,301.4403685000725,301.4403685000725,301.449249900179,302.4471394000575,302.4471394000575,302.67045400012285,x,1,0.21499500004574656,None,,,,,04,001,2025-10-02_11h26.52.613,Motor Sequential Learning,,2025.1.1,72.94887807643727,2025-10-02 11h26.58.698852 +0530,
150,v,133,1,33,v,1,0.041873699985444546,None,33,1,133,1,,,,,302.683410000056,,302.6709561999887,302.683410000056,303.67628100002185,303.67628100002185,303.67628100002185,303.67628100002185,303.6904547000304,304.6697160000913,304.6697160000913,304.71252780011855,v,1,0.041873699985444546,None,,,,,04,001,2025-10-02_11h26.52.613,Motor Sequential Learning,,2025.1.1,72.94887807643727,2025-10-02 11h26.58.698852 +0530,
50,c,134,2,33,c,1,0.1845171998720616,None,33,2,134,2,,,,,304.72498619998805,,304.7130386000499,304.72498619998805,305.71151950000785,305.71151950000785,305.71151950000785,305.71151950000785,305.725316000171,306.71133480011486,306.71133480011486,306.89987460011616,c,1,0.1845171998720616,None,,,,,04,001,2025-10-02_11h26.52.613,Motor Sequential Learning,,2025.1.1,72.94887807643727,2025-10-02 11h26.58.698852 +0530,
-150,z,135,3,33,z,1,0.2417132998816669,None,33,3,135,3,,,,,306.91234030015767,,306.90011500008404,306.91234030015767,307.89879210013896,307.89879210013896,307.89879210013896,307.89879210013896,307.9127907999791,308.8987116999924,308.8987116999924,309.14181430009194,z,1,0.2417132998816669,None,,,,,04,001,2025-10-02_11h26.52.613,Motor Sequential Learning,,2025.1.1,72.94887807643727,2025-10-02 11h26.58.698852 +0530,
-50,x,136,0,34,x,1,0.1935320000629872,None,34,0,136,0,,,,,309.1554674000945,,309.1421952000819,309.1554674000945,310.1423531000037,310.1423531000037,310.1423531000037,310.1423531000037,310.15545170009136,311.14205330004916,311.14205330004916,311.34380820021033,x,1,0.1935320000629872,None,,,,,04,001,2025-10-02_11h26.52.613,Motor Sequential Learning,,2025.1.1,72.94887807643727,2025-10-02 11h26.58.698852 +0530,
150,v,137,1,34,v,1,0.20443629985675216,None,34,1,137,1,,,,,311.35753610008396,,311.3442977000959,311.35753610008396,312.34513100003824,312.34513100003824,312.34513100003824,312.34513100003824,312.35712240007706,313.35040100011975,313.35040100011975,313.5661063999869,v,1,0.20443629985675216,None,,,,,04,001,2025-10-02_11h26.52.613,Motor Sequential Learning,,2025.1.1,72.94887807643727,2025-10-02 11h26.58.698852 +0530,
50,c,138,2,34,c,1,0.1588604999706149,None,34,2,138,2,,,,,313.5798665001057,,313.5666418999899,313.5798665001057,314.5654995001387,314.5654995001387,314.5654995001387,314.5654995001387,314.5743404000532,315.57231240021065,315.57231240021065,315.73288960009813,c,1,0.1588604999706149,None,,,,,04,001,2025-10-02_11h26.52.613,Motor Sequential Learning,,2025.1.1,72.94887807643727,2025-10-02 11h26.58.698852 +0530,
-150,z,139,3,34,z,1,0.029188399901613593,None,34,3,139,3,,,,,315.74579020007513,,315.7332493001595,315.74579020007513,316.7323213000782,316.7323213000782,316.7323213000782,316.7323213000782,316.74636430013925,317.72559170005843,317.72559170005843,317.766097499989,z,1,0.029188399901613593,None,,,,,04,001,2025-10-02_11h26.52.613,Motor Sequential Learning,,2025.1.1,72.94887807643727,2025-10-02 11h26.58.698852 +0530,
-50,x,140,0,35,x,1,0.21952920011244714,None,35,0,140,0,,,,,317.7744026000146,,317.76636040001176,317.7744026000146,318.7674734001048,318.7674734001048,318.7674734001048,318.7674734001048,318.78097750013694,319.77381830010563,319.77381830010563,320.0036545000039,x,1,0.21952920011244714,None,,,,,04,001,2025-10-02_11h26.52.613,Motor Sequential Learning,,2025.1.1,72.94887807643727,2025-10-02 11h26.58.698852 +0530,
150,v,141,1,35,v,1,0.15164509997703135,None,35,1,141,1,,,,,320.01669270009734,,320.0041909001302,320.01669270009734,321.002507600002,321.002507600002,321.002507600002,321.002507600002,321.0110061999876,322.00313180009834,322.00313180009834,322.15782060008496,v,1,0.15164509997703135,None,,,,,04,001,2025-10-02_11h26.52.613,Motor Sequential Learning,,2025.1.1,72.94887807643727,2025-10-02 11h26.58.698852 +0530,
50,c,142,2,35,c,1,0.11571479984559119,None,35,2,142,2,,,,,322.16956569999456,,322.15824730019085,322.16956569999456,323.1563155001495,323.1563155001495,323.1563155001495,323.1563155001495,323.16978230001405,324.1557783000171,324.1557783000171,324.27525539998896,c,1,0.11571479984559119,None,,,,,04,001,2025-10-02_11h26.52.613,Motor Sequential Learning,,2025.1.1,72.94887807643727,2025-10-02 11h26.58.698852 +0530,
-150,z,143,3,35,z,1,0.10708740004338324,None,35,3,143,3,,,,,324.28776019997895,,324.2757286000997,324.28776019997895,325.27414820017293,325.27414820017293,325.27414820017293,325.27414820017293,325.2826777000446,326.280776000116,326.280776000116,326.3928098999895,z,1,0.10708740004338324,None,,,,,04,001,2025-10-02_11h26.52.613,Motor Sequential Learning,,2025.1.1,72.94887807643727,2025-10-02 11h26.58.698852 +0530,
-50,x,144,0,36,x,1,0.24596169986762106,None,36,0,144,0,,,,,326.406529400032,,326.39314520009793,326.406529400032,327.39956130017526,327.39956130017526,327.39956130017526,327.39956130017526,327.41483130003326,328.3924126001075,328.3924126001075,328.6442113001831,x,1,0.24596169986762106,None,,,,,04,001,2025-10-02_11h26.52.613,Motor Sequential Learning,,2025.1.1,72.94887807643727,2025-10-02 11h26.58.698852 +0530,
150,v,145,1,36,v,1,0.314689600141719,None,36,1,145,1,,,,,328.6558136001695,,328.64491310017183,328.6558136001695,329.64141010004096,329.64141010004096,329.64141010004096,329.64141010004096,329.64961540000513,330.6494471000042,330.6494471000042,330.97641850006767,v,1,0.314689600141719,None,,,,,04,001,2025-10-02_11h26.52.613,Motor Sequential Learning,,2025.1.1,72.94887807643727,2025-10-02 11h26.58.698852 +0530,
50,c,146,2,36,c,1,0.2309866000432521,None,36,2,146,2,,,,,330.9899266001303,,330.9769406002015,330.9899266001303,331.97732330020517,331.97732330020517,331.97732330020517,331.97732330020517,331.9895737001207,332.97542060003616,332.97542060003616,333.2191950001288,c,1,0.2309866000432521,None,,,,,04,001,2025-10-02_11h26.52.613,Motor Sequential Learning,,2025.1.1,72.94887807643727,2025-10-02 11h26.58.698852 +0530,
-150,z,147,3,36,z,1,0.2503811998758465,None,36,3,147,3,,,,,333.2328517001588,,333.21962490002625,333.2328517001588,334.21855610003695,334.21855610003695,334.21855610003695,334.21855610003695,334.2324274000712,335.2188034001738,335.2188034001738,335.47697580000386,z,1,0.2503811998758465,None,,,,,04,001,2025-10-02_11h26.52.613,Motor Sequential Learning,,2025.1.1,72.94887807643727,2025-10-02 11h26.58.698852 +0530,
-50,x,148,0,37,x,1,0.2306339000351727,None,37,0,148,0,,,,,335.48986089997925,,335.47763300011866,335.48986089997925,336.4757258000318,336.4757258000318,336.4757258000318,336.4757258000318,336.490928000072,337.484277700074,337.484277700074,337.7259082000237,x,1,0.2306339000351727,None,,,,,04,001,2025-10-02_11h26.52.613,Motor Sequential Learning,,2025.1.1,72.94887807643727,2025-10-02 11h26.58.698852 +0530,
150,v,149,1,37,v,1,0.39146300009451807,None,37,1,149,1,,,,,337.7341828001663,,337.7263933001086,337.7341828001663,338.72560800006613,338.72560800006613,338.72560800006613,338.72560800006613,338.7400144999847,339.72537980019115,339.72537980019115,340.1294331001118,v,1,0.39146300009451807,None,,,,,04,001,2025-10-02_11h26.52.613,Motor Sequential Learning,,2025.1.1,72.94887807643727,2025-10-02 11h26.58.698852 +0530,
50,c,150,2,37,c,1,0.15552359982393682,None,37,2,150,2,,,,,340.14238220010884,,340.1300896999892,340.14238220010884,341.1353608001955,341.1353608001955,341.1353608001955,341.1353608001955,341.144699400058,342.1283369001467,342.1283369001467,342.29604930011556,c,1,0.15552359982393682,None,,,,,04,001,2025-10-02_11h26.52.613,Motor Sequential Learning,,2025.1.1,72.94887807643727,2025-10-02 11h26.58.698852 +0530,
-150,z,151,3,37,z,1,0.07041389984078705,None,37,3,151,3,,,,,342.30915690003894,,342.29657840006985,342.30915690003894,343.30170760001056,343.30170760001056,343.30170760001056,343.30170760001056,343.310751600191,344.30201500002295,344.30201500002295,344.38676130003296,z,1,0.07041389984078705,None,,,,,04,001,2025-10-02_11h26.52.613,Motor Sequential Learning,,2025.1.1,72.94887807643727,2025-10-02 11h26.58.698852 +0530,
-50,x,152,0,38,x,1,0.04254260007292032,None,38,0,152,0,,,,,344.3994380000513,,344.38732930016704,344.3994380000513,345.39258190011606,345.39258190011606,345.39258190011606,345.39258190011606,345.406500400044,346.3926429999992,346.3926429999992,346.44848030013964,x,1,0.04254260007292032,None,,,,,04,001,2025-10-02_11h26.52.613,Motor Sequential Learning,,2025.1.1,72.94887807643727,2025-10-02 11h26.58.698852 +0530,
150,v,153,1,38,v,1,0.22073870012536645,None,38,1,153,1,,,,,346.4621344001498,,346.449164000107,346.4621344001498,347.4480926999822,347.4480926999822,347.4480926999822,347.4480926999822,347.4616806001868,348.45461670006625,348.45461670006625,348.678036400117,v,1,0.22073870012536645,None,,,,,04,001,2025-10-02_11h26.52.613,Motor Sequential Learning,,2025.1.1,72.94887807643727,2025-10-02 11h26.58.698852 +0530,
50,c,154,2,38,c,1,0.2316222998779267,None,38,2,154,2,,,,,348.6910465999972,,348.678616899997,348.6910465999972,349.6720435000025,349.6720435000025,349.6720435000025,349.6720435000025,349.69282550015487,350.68476249999367,350.68476249999367,350.920673500048,c,1,0.2316222998779267,None,,,,,04,001,2025-10-02_11h26.52.613,Motor Sequential Learning,,2025.1.1,72.94887807643727,2025-10-02 11h26.58.698852 +0530,
-150,z,155,3,38,z,1,0.2162607000209391,None,38,3,155,3,,,,,350.9337977000978,,350.9210143000819,350.9337977000978,351.92721820017323,351.92721820017323,351.92721820017323,351.92721820017323,351.94139660010114,352.92018340015784,352.92018340015784,353.1431904002093,z,1,0.2162607000209391,None,,,,,04,001,2025-10-02_11h26.52.613,Motor Sequential Learning,,2025.1.1,72.94887807643727,2025-10-02 11h26.58.698852 +0530,
-50,x,156,0,39,x,1,0.43765820004045963,None,39,0,156,0,,,,,353.15628480003215,,353.14370870008133,353.15628480003215,354.149966500001,354.149966500001,354.149966500001,354.149966500001,354.16563340020366,355.14954740018584,355.14954740018584,355.58996500005014,x,1,0.43765820004045963,None,,,,,04,001,2025-10-02_11h26.52.613,Motor Sequential Learning,,2025.1.1,72.94887807643727,2025-10-02 11h26.58.698852 +0530,
150,v,157,1,39,v,1,0.02530180010944605,None,39,1,157,1,,,,,355.60086880018935,,355.5903724001255,355.60086880018935,356.58209090004675,356.58209090004675,356.58209090004675,356.58209090004675,356.6075782000553,357.5882374001667,357.5882374001667,357.61589850019664,v,1,0.02530180010944605,None,,,,,04,001,2025-10-02_11h26.52.613,Motor Sequential Learning,,2025.1.1,72.94887807643727,2025-10-02 11h26.58.698852 +0530,
50,c,158,2,39,c,1,0.1876064999960363,None,39,2,158,2,,,,,357.6288449000567,,357.6165788001381,357.6288449000567,358.61493150005117,358.61493150005117,358.61493150005117,358.61493150005117,358.6234063000884,359.6093425001018,359.6093425001018,359.8099678000435,c,1,0.1876064999960363,None,,,,,04,001,2025-10-02_11h26.52.613,Motor Sequential Learning,,2025.1.1,72.94887807643727,2025-10-02 11h26.58.698852 +0530,
-150,z,159,3,39,z,1,0.3061925999354571,None,39,3,159,3,,,,,359.8235101001337,,359.8105624001473,359.8235101001337,360.8095355001278,360.8095355001278,360.8095355001278,360.8095355001278,360.82331440015696,361.81609229999594,361.81609229999594,362.1364355001133,z,1,0.3061925999354571,None,,,,,04,001,2025-10-02_11h26.52.613,Motor Sequential Learning,,2025.1.1,72.94887807643727,2025-10-02 11h26.58.698852 +0530,
-50,x,160,0,40,x,1,0.24313739989884198,None,40,0,160,0,,,,,362.14970050007105,,362.13699960010126,362.14970050007105,363.13725760020316,363.13725760020316,363.13725760020316,363.13725760020316,363.1494856001809,364.14267580001615,364.14267580001615,364.3866665000096,x,1,0.24313739989884198,None,,,,,04,001,2025-10-02_11h26.52.613,Motor Sequential Learning,,2025.1.1,72.94887807643727,2025-10-02 11h26.58.698852 +0530,
150,v,161,1,40,v,1,0.14761029998771846,None,40,1,161,1,,,,,364.40006480016746,,364.38735750014894,364.40006480016746,365.39252240001224,365.39252240001224,365.39252240001224,365.39252240001224,365.4069833001122,366.3854684000835,366.3854684000835,366.5453626001254,v,1,0.14761029998771846,None,,,,,04,001,2025-10-02_11h26.52.613,Motor Sequential Learning,,2025.1.1,72.94887807643727,2025-10-02 11h26.58.698852 +0530,
50,c,162,2,40,c,1,0.18811400001868606,None,40,2,162,2,,,,,366.55362070002593,,366.54567650007084,366.55362070002593,367.54560870002024,367.54560870002024,367.54560870002024,367.54560870002024,367.5542637000326,368.54684150009416,368.54684150009416,368.7474780001212,c,1,0.18811400001868606,None,,,,,04,001,2025-10-02_11h26.52.613,Motor Sequential Learning,,2025.1.1,72.94887807643727,2025-10-02 11h26.58.698852 +0530,
-150,z,163,3,40,z,1,0.22816230007447302,None,40,3,163,3,,,,,368.7607917999849,,368.747924500145,368.7607917999849,369.747124100104,369.747124100104,369.747124100104,369.747124100104,369.7609698001761,370.7413087000605,370.7413087000605,370.9839117000811,z,1,0.22816230007447302,None,,,,,04,001,2025-10-02_11h26.52.613,Motor Sequential Learning,,2025.1.1,72.94887807643727,2025-10-02 11h26.58.698852 +0530,
-50,x,164,0,41,x,1,0.14046639995649457,None,41,0,164,0,,,,,370.9972099000588,,370.9847520000767,370.9972099000588,371.97699320013635,371.97699320013635,371.97699320013635,371.97699320013635,371.9972373000346,372.98984510009177,372.98984510009177,373.1436490002088,x,1,0.14046639995649457,None,,,,,04,001,2025-10-02_11h26.52.613,Motor Sequential Learning,,2025.1.1,72.94887807643727,2025-10-02 11h26.58.698852 +0530,
150,v,165,1,41,v,1,0.18544859997928143,None,41,1,165,1,,,,,373.1570208000485,,373.1441737001296,373.1570208000485,374.14322850015014,374.14322850015014,374.14322850015014,374.14322850015014,374.15684700012207,375.14286650018767,375.14286650018767,375.3379860999994,v,1,0.18544859997928143,None,,,,,04,001,2025-10-02_11h26.52.613,Motor Sequential Learning,,2025.1.1,72.94887807643727,2025-10-02 11h26.58.698852 +0530,
50,c,166,2,41,c,1,0.1423315000720322,None,41,2,166,2,,,,,375.3511915002018,,375.33834690018557,375.3511915002018,376.33738160016946,376.33738160016946,376.33738160016946,376.33738160016946,376.35145690012723,377.344177500112,377.344177500112,377.4926657001488,c,1,0.1423315000720322,None,,,,,04,001,2025-10-02_11h26.52.613,Motor Sequential Learning,,2025.1.1,72.94887807643727,2025-10-02 11h26.58.698852 +0530,
-150,z,167,3,41,z,1,0.25858820020221174,None,41,3,167,3,,,,,377.5039133001119,,377.4932687000837,377.5039133001119,378.4901659002062,378.4901659002062,378.4901659002062,378.4901659002062,378.5039894999936,379.49014970008284,379.49014970008284,379.76136910007335,z,1,0.25858820020221174,None,,,,,04,001,2025-10-02_11h26.52.613,Motor Sequential Learning,,2025.1.1,72.94887807643727,2025-10-02 11h26.58.698852 +0530,
-50,x,168,0,42,x,1,0.1814102998469025,None,42,0,168,0,,,,,379.77482960000634,,379.76190210017376,379.77482960000634,380.760035000043,380.760035000043,380.760035000043,380.760035000043,380.7686580000445,381.76734360004775,381.76734360004775,381.96286700014025,x,1,0.1814102998469025,None,,,,,04,001,2025-10-02_11h26.52.613,Motor Sequential Learning,,2025.1.1,72.94887807643727,2025-10-02 11h26.58.698852 +0530,
150,v,169,1,42,v,1,0.2667177999392152,None,42,1,169,1,,,,,381.9765834000427,,381.96336010005325,381.9765834000427,382.96238859998994,382.96238859998994,382.96238859998994,382.96238859998994,382.9764327001758,383.9628029000014,383.9628029000014,384.24102860013954,v,1,0.2667177999392152,None,,,,,04,001,2025-10-02_11h26.52.613,Motor Sequential Learning,,2025.1.1,72.94887807643727,2025-10-02 11h26.58.698852 +0530,
50,c,170,2,42,c,1,0.034911900060251355,None,42,2,170,2,,,,,384.2542775000911,,384.241520000156,384.2542775000911,385.24794999998994,385.24794999998994,385.24794999998994,385.24794999998994,385.2608037001919,386.23985010012984,386.23985010012984,386.2824912001379,c,1,0.034911900060251355,None,,,,,04,001,2025-10-02_11h26.52.613,Motor Sequential Learning,,2025.1.1,72.94887807643727,2025-10-02 11h26.58.698852 +0530,
-150,z,171,3,42,z,1,0.2034219999331981,None,42,3,171,3,,,,,386.29609269998036,,386.28296079998836,386.29609269998036,387.28902150015347,387.28902150015347,387.28902150015347,387.28902150015347,387.3027060001623,388.28872940014116,388.28872940014116,388.49297270015813,z,1,0.2034219999331981,None,,,,,04,001,2025-10-02_11h26.52.613,Motor Sequential Learning,,2025.1.1,72.94887807643727,2025-10-02 11h26.58.698852 +0530,
-50,x,172,0,43,x,1,0.26472889981232584,None,43,0,172,0,,,,,388.50414060009643,,388.49359030020423,388.50414060009643,389.4903400000185,389.4903400000185,389.4903400000185,389.4903400000185,389.49991270015016,390.4920465000905,390.4920465000905,390.7619286000263,x,1,0.26472889981232584,None,,,,,04,001,2025-10-02_11h26.52.613,Motor Sequential Learning,,2025.1.1,72.94887807643727,2025-10-02 11h26.58.698852 +0530,
150,v,173,1,43,v,1,0.07855309988372028,None,43,1,173,1,,,,,390.77470210008323,,390.76237660017796,390.77470210008323,391.7681925999932,391.7681925999932,391.7681925999932,391.7681925999932,391.7822495000437,392.7680081001017,392.7680081001017,392.85889700008556,v,1,0.07855309988372028,None,,,,,04,001,2025-10-02_11h26.52.613,Motor Sequential Learning,,2025.1.1,72.94887807643727,2025-10-02 11h26.58.698852 +0530,
50,c,174,2,43,c,1,0.20877300016582012,None,43,2,174,2,,,,,392.86676020012237,,392.8592305001803,392.86676020012237,393.8652786000166,393.8652786000166,393.8652786000166,393.8652786000166,393.8652786000166,394.86510830000043,394.86510830000043,395.08117730007507,c,1,0.20877300016582012,None,,,,,04,001,2025-10-02_11h26.52.613,Motor Sequential Learning,,2025.1.1,72.94887807643727,2025-10-02 11h26.58.698852 +0530,
-150,z,175,3,43,z,1,0.32083689980208874,None,43,3,175,3,,,,,395.0946269000415,,395.0817995001562,395.0946269000415,396.0875252999831,396.0875252999831,396.0875252999831,396.0875252999831,396.0960304001346,397.08068140014075,397.08068140014075,397.4078827002086,z,1,0.32083689980208874,None,,,,,04,001,2025-10-02_11h26.52.613,Motor Sequential Learning,,2025.1.1,72.94887807643727,2025-10-02 11h26.58.698852 +0530,
-50,x,176,0,44,x,1,0.24250980000942945,None,44,0,176,0,,,,,397.42117610014975,,397.4083785000257,397.42117610014975,398.40721000009216,398.40721000009216,398.40721000009216,398.40721000009216,398.4213364000898,399.41401890013367,399.41401890013367,399.65805430011824,x,1,0.24250980000942945,None,,,,,04,001,2025-10-02_11h26.52.613,Motor Sequential Learning,,2025.1.1,72.94887807643727,2025-10-02 11h26.58.698852 +0530,
150,v,177,1,44,v,1,0.13475199998356402,None,44,1,177,1,,,,,399.67100970004685,,399.658523300197,399.67100970004685,400.6573077000212,400.6573077000212,400.6573077000212,400.6573077000212,400.67094009998254,401.65708480007015,401.65708480007015,401.79668970010243,v,1,0.13475199998356402,None,,,,,04,001,2025-10-02_11h26.52.613,Motor Sequential Learning,,2025.1.1,72.94887807643727,2025-10-02 11h26.58.698852 +0530,
50,c,178,2,44,c,1,0.33638769993558526,None,44,2,178,2,,,,,401.8111058000941,,401.79721490014344,401.8111058000941,402.8028707001358,402.8028707001358,402.8028707001358,402.8028707001358,402.8173028000165,403.79622570006177,403.79622570006177,404.13727200008,c,1,0.33638769993558526,None,,,,,04,001,2025-10-02_11h26.52.613,Motor Sequential Learning,,2025.1.1,72.94887807643727,2025-10-02 11h26.58.698852 +0530,
-150,z,179,3,44,z,1,0.39396639983169734,None,44,3,179,3,,,,,404.1503064001445,,404.1378476000391,404.1503064001445,405.136640700046,405.136640700046,405.136640700046,405.136640700046,405.149854300078,406.14305200008675,406.14305200008675,406.54611240001395,z,1,0.39396639983169734,None,,,,,04,001,2025-10-02_11h26.52.613,Motor Sequential Learning,,2025.1.1,72.94887807643727,2025-10-02 11h26.58.698852 +0530,
-50,x,180,0,45,x,1,0.3194317000452429,None,45,0,180,0,,,,,406.5598458000459,,406.54659600020386,406.5598458000459,407.5456515001133,407.5456515001133,407.5456515001133,407.5456515001133,407.5541293001734,408.5462202001363,408.5462202001363,408.8728366000578,x,1,0.3194317000452429,None,,,,,04,001,2025-10-02_11h26.52.613,Motor Sequential Learning,,2025.1.1,72.94887807643727,2025-10-02 11h26.58.698852 +0530,
150,v,181,1,45,v,1,0.24886450008489192,None,45,1,181,1,,,,,408.8865940000396,,408.87332200002857,408.8865940000396,409.87961300020106,409.87961300020106,409.87961300020106,409.87961300020106,409.8935481000226,410.8793692002073,410.8793692002073,411.13011000002734,v,1,0.24886450008489192,None,,,,,04,001,2025-10-02_11h26.52.613,Motor Sequential Learning,,2025.1.1,72.94887807643727,2025-10-02 11h26.58.698852 +0530,
50,c,182,2,45,c,1,0.24173130001872778,None,45,2,182,2,,,,,411.1432690001093,,411.1305921000894,411.1432690001093,412.12951030000113,412.12951030000113,412.12951030000113,412.12951030000113,412.14360260008834,413.1369803000707,413.1369803000707,413.38650730019435,c,1,0.24173130001872778,None,,,,,04,001,2025-10-02_11h26.52.613,Motor Sequential Learning,,2025.1.1,72.94887807643727,2025-10-02 11h26.58.698852 +0530,
-150,z,183,3,45,z,1,0.22581890015862882,None,45,3,183,3,,,,,413.4012910001911,,413.3869252000004,413.4012910001911,414.38650110014714,414.38650110014714,414.38650110014714,414.38650110014714,414.4001140000764,415.39297980000265,415.39297980000265,415.62323900009505,z,1,0.22581890015862882,None,,,,,04,001,2025-10-02_11h26.52.613,Motor Sequential Learning,,2025.1.1,72.94887807643727,2025-10-02 11h26.58.698852 +0530,
-50,x,184,0,46,x,1,0.20491199987009168,None,46,0,184,0,,,,,415.63003310002387,,415.6234285000246,415.63003310002387,416.62446269998327,416.62446269998327,416.62446269998327,416.62446269998327,416.62446269998327,417.6224625001196,417.6224625001196,417.8323139999993,x,1,0.20491199987009168,None,,,,,04,001,2025-10-02_11h26.52.613,Motor Sequential Learning,,2025.1.1,72.94887807643727,2025-10-02 11h26.58.698852 +0530,
150,v,185,1,46,v,1,0.2333169998601079,None,46,1,185,1,,,,,417.84418380004354,,417.8330343000125,417.84418380004354,418.83140710019507,418.83140710019507,418.83140710019507,418.83140710019507,418.84496690006927,419.8312753001228,419.8312753001228,420.07505380013026,v,1,0.2333169998601079,None,,,,,04,001,2025-10-02_11h26.52.613,Motor Sequential Learning,,2025.1.1,72.94887807643727,2025-10-02 11h26.58.698852 +0530,
50,c,186,2,46,c,1,0.24176559993065894,None,46,2,186,2,,,,,420.08757670014165,,420.0753673000727,420.08757670014165,421.081128800055,421.081128800055,421.081128800055,421.081128800055,421.09504720009863,422.07540410012007,422.07540410012007,422.31936750002205,c,1,0.24176559993065894,None,,,,,04,001,2025-10-02_11h26.52.613,Motor Sequential Learning,,2025.1.1,72.94887807643727,2025-10-02 11h26.58.698852 +0530,
-150,z,187,3,46,z,1,0.25596239999867976,None,46,3,187,3,,,,,422.33099879999645,,422.31981910020113,422.33099879999645,423.31725150020793,423.31725150020793,423.31725150020793,423.31725150020793,423.3309229000006,424.3242930001579,424.3242930001579,424.5881638000719,z,1,0.25596239999867976,None,,,,,04,001,2025-10-02_11h26.52.613,Motor Sequential Learning,,2025.1.1,72.94887807643727,2025-10-02 11h26.58.698852 +0530,
-50,x,188,0,47,x,1,0.21482220012694597,None,47,0,188,0,,,,,424.602039600024,,424.58863050001673,424.602039600024,425.59502440015785,425.59502440015785,425.59502440015785,425.59502440015785,425.6089368001558,426.5950002002064,426.5950002002064,426.81802650005557,x,1,0.21482220012694597,None,,,,,04,001,2025-10-02_11h26.52.613,Motor Sequential Learning,,2025.1.1,72.94887807643727,2025-10-02 11h26.58.698852 +0530,
150,v,189,1,47,v,1,0.16346700000576675,None,47,1,189,1,,,,,426.8310305001214,,426.8185757000465,426.8310305001214,427.81712030014023,427.81712030014023,427.81712030014023,427.81712030014023,427.8310541000683,428.82431549998,428.82431549998,428.9915291001089,v,1,0.16346700000576675,None,,,,,04,001,2025-10-02_11h26.52.613,Motor Sequential Learning,,2025.1.1,72.94887807643727,2025-10-02 11h26.58.698852 +0530,
50,c,190,2,47,c,1,0.26679229992441833,None,47,2,190,2,,,,,429.0047125001438,,428.9922266001813,429.0047125001438,429.9977488000877,429.9977488000877,429.9977488000877,429.9977488000877,430.0116409000475,430.99817900010385,430.99817900010385,431.2698531001806,c,1,0.26679229992441833,None,,,,,04,001,2025-10-02_11h26.52.613,Motor Sequential Learning,,2025.1.1,72.94887807643727,2025-10-02 11h26.58.698852 +0530,
-150,z,191,3,47,z,1,0.04097360000014305,None,47,3,191,3,,,,,431.2827405000571,,431.2706430000253,431.2827405000571,432.2691351000685,432.2691351000685,432.2691351000685,432.2691351000685,432.28265890013427,433.27583960001357,433.27583960001357,433.31864390010014,z,1,0.04097360000014305,None,,,,,04,001,2025-10-02_11h26.52.613,Motor Sequential Learning,,2025.1.1,72.94887807643727,2025-10-02 11h26.58.698852 +0530,
-50,x,192,0,48,x,1,0.3220462000463158,None,48,0,192,0,,,,,433.3312970001716,,433.31916910014115,433.3312970001716,434.31773030012846,434.31773030012846,434.31773030012846,434.31773030012846,434.331138700014,435.3174556000158,435.3174556000158,435.6516480999999,x,1,0.3220462000463158,None,,,,,04,001,2025-10-02_11h26.52.613,Motor Sequential Learning,,2025.1.1,72.94887807643727,2025-10-02 11h26.58.698852 +0530,
150,v,193,1,48,v,1,0.07287939987145364,None,48,1,193,1,,,,,435.6645929000806,,435.65245520020835,435.6645929000806,436.6504362002015,436.6504362002015,436.6504362002015,436.6504362002015,436.6595276000444,437.64957890007645,437.64957890007645,437.7276976001449,v,1,0.07287939987145364,None,,,,,04,001,2025-10-02_11h26.52.613,Motor Sequential Learning,,2025.1.1,72.94887807643727,2025-10-02 11h26.58.698852 +0530,
50,c,194,2,48,c,1,0.22909829998388886,None,48,2,194,2,,,,,437.74001460010186,,437.72797380015254,437.74001460010186,438.7272678001318,438.7272678001318,438.7272678001318,438.7272678001318,438.7410983000882,439.7272132001817,439.7272132001817,439.96430730004795,c,1,0.22909829998388886,None,,,,,04,001,2025-10-02_11h26.52.613,Motor Sequential Learning,,2025.1.1,72.94887807643727,2025-10-02 11h26.58.698852 +0530,
-150,z,195,3,48,z,1,0.25824250001460314,None,48,3,195,3,,,,,439.9768231001217,,439.96520410012454,439.9768231001217,440.9703912001569,440.9703912001569,440.9703912001569,440.9703912001569,440.9838162001688,441.970445800107,441.970445800107,442.2420664001256,z,1,0.25824250001460314,None,,,,,04,001,2025-10-02_11h26.52.613,Motor Sequential Learning,,2025.1.1,72.94887807643727,2025-10-02 11h26.58.698852 +0530,
-50,x,196,0,49,x,1,0.1387447000015527,None,49,0,196,0,,,,,442.25483730016276,,442.242707000114,442.25483730016276,443.2424155001063,443.2424155001063,443.2424155001063,443.2424155001063,443.25446680001915,444.24089590017684,444.24089590017684,444.3946823000442,x,1,0.1387447000015527,None,,,,,04,001,2025-10-02_11h26.52.613,Motor Sequential Learning,,2025.1.1,72.94887807643727,2025-10-02 11h26.58.698852 +0530,
150,v,197,1,49,v,1,0.26614649989642203,None,49,1,197,1,,,,,444.40779470000416,,444.39540470018983,444.40779470000416,445.39384600007907,445.39384600007907,445.39384600007907,445.39384600007907,445.40732460003346,446.3938985001296,446.3938985001296,446.6716867000796,v,1,0.26614649989642203,None,,,,,04,001,2025-10-02_11h26.52.613,Motor Sequential Learning,,2025.1.1,72.94887807643727,2025-10-02 11h26.58.698852 +0530,
50,c,198,2,49,c,1,0.20781759987585247,None,49,2,198,2,,,,,446.68049260019325,,446.67210960015655,446.68049260019325,447.6714675000403,447.6714675000403,447.6714675000403,447.6714675000403,447.6802855001297,448.67868120013736,448.67868120013736,448.9018379000481,c,1,0.20781759987585247,None,,,,,04,001,2025-10-02_11h26.52.613,Motor Sequential Learning,,2025.1.1,72.94887807643727,2025-10-02 11h26.58.698852 +0530,
-150,z,199,3,49,z,1,0.2630299001466483,None,49,3,199,3,,,,,448.91483030002564,,448.9023663001135,448.91483030002564,449.9010605001822,449.9010605001822,449.9010605001822,449.9010605001822,449.9146726001054,450.90072740009055,450.90072740009055,451.17905220016837,z,1,0.2630299001466483,None,,,,,04,001,2025-10-02_11h26.52.613,Motor Sequential Learning,,2025.1.1,72.94887807643727,2025-10-02 11h26.58.698852 +0530,
-150,z,0,0,0,x,0,0.06924399989657104,None,,,,,0,0,0,3,451.1989859000314,,451.18956990004517,451.1989859000314,452.1730690000113,452.1730690000113,452.1730690000113,452.1730690000113,452.19450930017047,453.1787442001514,453.1787442001514,453.25521089998074,,,,,x,0,0.06924399989657104,None,04,001,2025-10-02_11h26.52.613,Motor Sequential Learning,,2025.1.1,72.94887807643727,2025-10-02 11h26.58.698852 +0530,
-150,z,1,1,1,z,1,0.295577600132674,None,,,,,1,1,1,3,453.26921549998224,,453.2558244999964,453.26921549998224,454.2550274000969,454.2550274000969,454.2550274000969,454.2550274000969,454.26902430015616,455.2625330002047,455.2625330002047,455.5621772001032,,,,,z,1,0.295577600132674,None,04,001,2025-10-02_11h26.52.613,Motor Sequential Learning,,2025.1.1,72.94887807643727,2025-10-02 11h26.58.698852 +0530,
-50,x,2,2,0,x,1,0.40726629993878305,None,,,,,0,2,2,0,455.5743398000486,,455.56258300016634,455.5743398000486,456.5550609000493,456.5550609000493,456.5550609000493,456.5550609000493,456.5816513001919,457.560725599993,457.560725599993,457.9721792000346,,,,,x,1,0.40726629993878305,None,04,001,2025-10-02_11h26.52.613,Motor Sequential Learning,,2025.1.1,72.94887807643727,2025-10-02 11h26.58.698852 +0530,
-50,x,3,3,1,x,1,0.3780441000126302,None,,,,,1,3,3,0,457.9846336999908,,457.9728739000857,457.9846336999908,458.97071980009787,458.97071980009787,458.97071980009787,458.97071980009787,458.9840602001641,459.9773592001293,459.9773592001293,460.360228799982,,,,,x,1,0.3780441000126302,None,04,001,2025-10-02_11h26.52.613,Motor Sequential Learning,,2025.1.1,72.94887807643727,2025-10-02 11h26.58.698852 +0530,
150,v,4,4,0,v,1,0.5606998999137431,None,,,,,0,4,4,1,460.3732865001075,,460.3607264000457,460.3732865001075,461.3663689000532,461.3663689000532,461.3663689000532,461.3663689000532,461.37966189999133,462.36643270007335,462.36643270007335,462.92968810000457,,,,,v,1,0.5606998999137431,None,04,001,2025-10-02_11h26.52.613,Motor Sequential Learning,,2025.1.1,72.94887807643727,2025-10-02 11h26.58.698852 +0530,
150,v,5,5,1,v,1,0.6680383998900652,None,,,,,1,5,5,1,462.94234920013696,,462.93018000014126,462.94234920013696,463.93633750011213,463.93633750011213,463.93633750011213,463.93633750011213,463.94990970008075,464.9361296000425,464.9361296000425,465.6244063000195,,,,,v,1,0.6680383998900652,None,04,001,2025-10-02_11h26.52.613,Motor Sequential Learning,,2025.1.1,72.94887807643727,2025-10-02 11h26.58.698852 +0530,
50,c,6,6,0,c,1,0.42597960005514324,None,,,,,0,6,6,2,465.6374781001359,,465.6249437001534,465.6374781001359,466.62343850010075,466.62343850010075,466.62343850010075,466.62343850010075,466.6316444000695,467.6235085001681,467.6235085001681,468.0545268000569,,,,,c,1,0.42597960005514324,None,04,001,2025-10-02_11h26.52.613,Motor Sequential Learning,,2025.1.1,72.94887807643727,2025-10-02 11h26.58.698852 +0530,
-150,z,7,7,2,z,1,0.5083757999818772,None,,,,,2,7,7,3,468.0677957001608,,468.05498960008845,468.0677957001608,469.0541680001188,469.0541680001188,469.0541680001188,469.0541680001188,469.0678158001974,470.053826500196,470.053826500196,470.56834400002845,,,,,z,1,0.5083757999818772,None,04,001,2025-10-02_11h26.52.613,Motor Sequential Learning,,2025.1.1,72.94887807643727,2025-10-02 11h26.58.698852 +0530,
50,c,8,8,1,c,1,0.47778349998407066,None,,,,,1,8,8,2,470.5815105000511,,470.5689558000304,470.5815105000511,471.574984600069,471.574984600069,471.574984600069,471.574984600069,471.5891700000502,472.5748341002036,472.5748341002036,473.06184200011194,,,,,c,1,0.47778349998407066,None,04,001,2025-10-02_11h26.52.613,Motor Sequential Learning,,2025.1.1,72.94887807643727,2025-10-02 11h26.58.698852 +0530,
-50,x,9,9,2,x,1,0.3950145000126213,None,,,,,2,9,9,0,473.0746788000688,,473.06236460013315,473.0746788000688,474.06798080005683,474.06798080005683,474.06798080005683,474.06798080005683,474.08187100011855,475.060901600169,475.060901600169,475.46377869998105,,,,,x,1,0.3950145000126213,None,04,001,2025-10-02_11h26.52.613,Motor Sequential Learning,,2025.1.1,72.94887807643727,2025-10-02 11h26.58.698852 +0530,
50,c,10,10,2,c,1,0.43805929995141923,None,,,,,2,10,10,2,475.4772966001183,,475.46417769999243,475.4772966001183,476.4638700000942,476.4638700000942,476.4638700000942,476.4638700000942,476.47218660009094,477.4635869001504,477.4635869001504,477.90925090014935,,,,,c,1,0.43805929995141923,None,04,001,2025-10-02_11h26.52.613,Motor Sequential Learning,,2025.1.1,72.94887807643727,2025-10-02 11h26.58.698852 +0530,
-50,x,11,11,3,x,1,0.4681082998868078,None,,,,,3,11,11,0,477.92212580004707,,477.90994550008327,477.92212580004707,478.91552610020153,478.91552610020153,478.91552610020153,478.91552610020153,478.9291090001352,479.91483350005,479.91483350005,480.3880714001134,,,,,x,1,0.4681082998868078,None,04,001,2025-10-02_11h26.52.613,Motor Sequential Learning,,2025.1.1,72.94887807643727,2025-10-02 11h26.58.698852 +0530,
-150,z,12,12,3,z,1,0.3973016000818461,None,,,,,3,12,12,3,480.4017430001404,,480.3888597001787,480.4017430001404,481.38702370016836,481.38702370016836,481.38702370016836,481.38702370016836,481.39464760012925,482.38694890006445,482.38694890006445,482.7911138001364,,,,,z,1,0.3973016000818461,None,04,001,2025-10-02_11h26.52.613,Motor Sequential Learning,,2025.1.1,72.94887807643727,2025-10-02 11h26.58.698852 +0530,
150,v,13,13,2,v,1,0.7197849999647588,None,,,,,2,13,13,1,482.80370740010403,,482.7915364000946,482.80370740010403,483.7902601000387,483.7902601000387,483.7902601000387,483.7902601000387,483.80430580000393,484.79714210005477,484.79714210005477,485.5202701999806,,,,,v,1,0.7197849999647588,None,04,001,2025-10-02_11h26.52.613,Motor Sequential Learning,,2025.1.1,72.94887807643727,2025-10-02 11h26.58.698852 +0530,
150,v,14,14,3,v,1,0.5205370001494884,None,,,,,3,14,14,1,485.5331711000763,,485.520867299987,485.5331711000763,486.51941810012795,486.51941810012795,486.51941810012795,486.51941810012795,486.5333245000802,487.52647870010696,487.52647870010696,488.0533088000957,,,,,v,1,0.5205370001494884,None,04,001,2025-10-02_11h26.52.613,Motor Sequential Learning,,2025.1.1,72.94887807643727,2025-10-02 11h26.58.698852 +0530,
-150,z,15,15,4,z,1,0.6532601001672447,None,,,,,4,15,15,3,488.0614138999954,,488.0535600001458,488.0614138999954,489.0536842001602,489.0536842001602,489.0536842001602,489.0536842001602,489.06199280009605,490.0541139000561,490.0541139000561,490.70837890007533,,,,,z,1,0.6532601001672447,None,04,001,2025-10-02_11h26.52.613,Motor Sequential Learning,,2025.1.1,72.94887807643727,2025-10-02 11h26.58.698852 +0530,
-50,x,16,16,4,x,1,0.30121139995753765,None,,,,,4,16,16,0,490.72083860007115,,490.7091611002106,490.72083860007115,491.70684960018843,491.70684960018843,491.70684960018843,491.70684960018843,491.7208687001839,492.70728420000523,492.70728420000523,493.013415500056,,,,,x,1,0.30121139995753765,None,04,001,2025-10-02_11h26.52.613,Motor Sequential Learning,,2025.1.1,72.94887807643727,2025-10-02 11h26.58.698852 +0530,
50,c,17,17,3,c,1,0.3062877000775188,None,,,,,3,17,17,2,493.0266517000273,,493.0139465001412,493.0266517000273,494.01971540017985,494.01971540017985,494.01971540017985,494.01971540017985,494.0335080001969,495.0127817001194,495.0127817001194,495.32587220007554,,,,,c,1,0.3062877000775188,None,04,001,2025-10-02_11h26.52.613,Motor Sequential Learning,,2025.1.1,72.94887807643727,2025-10-02 11h26.58.698852 +0530,
150,v,18,18,4,v,1,0.6975114000961185,None,,,,,4,18,18,1,495.3390053000767,,495.32639170018956,495.3390053000767,496.32551590004005,496.32551590004005,496.32551590004005,496.32551590004005,496.3387929000892,497.3319179001264,497.3319179001264,498.04178129998036,,,,,v,1,0.6975114000961185,None,04,001,2025-10-02_11h26.52.613,Motor Sequential Learning,,2025.1.1,72.94887807643727,2025-10-02 11h26.58.698852 +0530,
-50,x,19,19,5,x,1,0.46893119998276234,None,,,,,5,19,19,0,498.05428660009056,,498.04237010004,498.05428660009056,499.0419756001793,499.0419756001793,499.0419756001793,499.0419756001793,499.0541030000895,500.0428086000029,500.0428086000029,500.51373700005934,,,,,x,1,0.46893119998276234,None,04,001,2025-10-02_11h26.52.613,Motor Sequential Learning,,2025.1.1,72.94887807643727,2025-10-02 11h26.58.698852 +0530,
150,v,20,20,5,v,1,1.7992686999496073,None,,,,,5,20,20,1,500.5266266001854,,500.51429730001837,500.5266266001854,501.5076373000629,501.5076373000629,501.5076373000629,501.5076373000629,501.5336243000347,502.5199603000656,502.5199603000656,504.3254523000214,,,,,v,1,1.7992686999496073,None,04,001,2025-10-02_11h26.52.613,Motor Sequential Learning,,2025.1.1,72.94887807643727,2025-10-02 11h26.58.698852 +0530,
-150,z,21,21,5,z,1,0.39062630012631416,None,,,,,5,21,21,3,504.333272700198,,504.3258074000478,504.333272700198,505.3253849002067,505.3253849002067,505.3253849002067,505.3253849002067,505.3394032001961,506.3250806001015,506.3250806001015,506.72852120012976,,,,,z,1,0.39062630012631416,None,04,001,2025-10-02_11h26.52.613,Motor Sequential Learning,,2025.1.1,72.94887807643727,2025-10-02 11h26.58.698852 +0530,
-150,z,22,22,6,z,1,0.4261982999742031,None,,,,,6,22,22,3,506.742201999994,,506.7289305999875,506.742201999994,507.7278652000241,507.7278652000241,507.7278652000241,507.7278652000241,507.7423361002002,508.72815350000747,508.72815350000747,509.1658452001866,,,,,z,1,0.4261982999742031,None,04,001,2025-10-02_11h26.52.613,Motor Sequential Learning,,2025.1.1,72.94887807643727,2025-10-02 11h26.58.698852 +0530,
50,c,23,23,4,c,1,0.45441609993577003,None,,,,,4,23,23,2,509.17874620016664,,509.1663589000236,509.17874620016664,510.1665884000249,510.1665884000249,510.1665884000249,510.1665884000249,510.1794893001206,511.1654962000903,511.1654962000903,511.63178699999116,,,,,c,1,0.45441609993577003,None,04,001,2025-10-02_11h26.52.613,Motor Sequential Learning,,2025.1.1,72.94887807643727,2025-10-02 11h26.58.698852 +0530,
50,c,24,24,5,c,1,0.3855662001296878,None,,,,,5,24,24,2,511.64487370010465,,511.63241469999775,511.64487370010465,512.6309372000396,512.6309372000396,512.6309372000396,512.6309372000396,512.6448119999841,513.6378417001106,513.6378417001106,514.0296609001234,,,,,c,1,0.3855662001296878,None,04,001,2025-10-02_11h26.52.613,Motor Sequential Learning,,2025.1.1,72.94887807643727,2025-10-02 11h26.58.698852 +0530,
150,v,25,25,6,v,1,0.8636243999935687,None,,,,,6,25,25,1,514.0407796001527,,514.0303645001259,514.0407796001527,515.0268219001591,515.0268219001591,515.0268219001591,515.0268219001591,515.0352617001627,516.0338836000301,516.0338836000301,516.9098932000343,,,,,v,1,0.8636243999935687,None,04,001,2025-10-02_11h26.52.613,Motor Sequential Learning,,2025.1.1,72.94887807643727,2025-10-02 11h26.58.698852 +0530,
150,v,26,26,7,v,1,0.49355469993315637,None,,,,,7,26,26,1,516.9230577000417,,516.9107189001516,516.9230577000417,517.9088026999962,517.9088026999962,517.9088026999962,517.9088026999962,517.9225032001268,518.9087686000858,518.9087686000858,519.4096175001469,,,,,v,1,0.49355469993315637,None,04,001,2025-10-02_11h26.52.613,Motor Sequential Learning,,2025.1.1,72.94887807643727,2025-10-02 11h26.58.698852 +0530,
-150,z,27,27,7,z,1,0.31887930002994835,None,,,,,7,27,27,3,519.4223080000374,,519.4104284001514,519.4223080000374,520.4087257001083,520.4087257001083,520.4087257001083,520.4087257001083,520.4169604000635,521.4086951001082,521.4086951001082,521.7288297000341,,,,,z,1,0.31887930002994835,None,04,001,2025-10-02_11h26.52.613,Motor Sequential Learning,,2025.1.1,72.94887807643727,2025-10-02 11h26.58.698852 +0530,
50,c,28,28,6,c,1,0.4579541999846697,None,,,,,6,28,28,2,521.7417323000263,,521.7291993000545,521.7417323000263,522.7285611000843,522.7285611000843,522.7285611000843,522.7285611000843,522.7421053000726,523.7354890001006,523.7354890001006,524.2015706000384,,,,,c,1,0.4579541999846697,None,04,001,2025-10-02_11h26.52.613,Motor Sequential Learning,,2025.1.1,72.94887807643727,2025-10-02 11h26.58.698852 +0530,
150,v,29,29,8,v,1,0.6757862998638302,None,,,,,8,29,29,1,524.2144796000794,,524.2020730001386,524.2144796000794,525.20065790019,525.20065790019,525.20065790019,525.20065790019,525.2143914001063,526.2006163999904,526.2006163999904,526.8814956001006,,,,,v,1,0.6757862998638302,None,04,001,2025-10-02_11h26.52.613,Motor Sequential Learning,,2025.1.1,72.94887807643727,2025-10-02 11h26.58.698852 +0530,
50,c,30,30,7,c,1,0.7059694000054151,None,,,,,7,30,30,2,526.8951338999905,,526.8821132001467,526.8951338999905,527.8887398000807,527.8887398000807,527.8887398000807,527.8887398000807,527.9021099000238,528.8807209001388,528.8807209001388,529.5963841001503,,,,,c,1,0.7059694000054151,None,04,001,2025-10-02_11h26.52.613,Motor Sequential Learning,,2025.1.1,72.94887807643727,2025-10-02 11h26.58.698852 +0530,
-50,x,31,31,6,x,1,0.4571144999936223,None,,,,,6,31,31,0,529.6100115000736,,529.5969943001401,529.6100115000736,530.5961885000579,530.5961885000579,530.5961885000579,530.5961885000579,530.6045494000427,531.5965948000085,531.5965948000085,532.0618492001668,,,,,x,1,0.4571144999936223,None,04,001,2025-10-02_11h26.52.613,Motor Sequential Learning,,2025.1.1,72.94887807643727,2025-10-02 11h26.58.698852 +0530,
-50,x,32,32,7,x,1,0.39985199994407594,None,,,,,7,32,32,0,532.0754790001083,,532.0623159999959,532.0754790001083,533.0627471001353,533.0627471001353,533.0627471001353,533.0627471001353,533.0756964001339,534.0615020000841,534.0615020000841,534.4724868000485,,,,,x,1,0.39985199994407594,None,04,001,2025-10-02_11h26.52.613,Motor Sequential Learning,,2025.1.1,72.94887807643727,2025-10-02 11h26.58.698852 +0530,
-50,x,33,33,8,x,1,0.3672356999013573,None,,,,,8,33,33,0,534.4855871000327,,534.4729922001716,534.4855871000327,535.4715730000753,535.4715730000753,535.4715730000753,535.4715730000753,535.4852222001646,536.4715948000085,536.4715948000085,536.8407805000897,,,,,x,1,0.3672356999013573,None,04,001,2025-10-02_11h26.52.613,Motor Sequential Learning,,2025.1.1,72.94887807643727,2025-10-02 11h26.58.698852 +0530,
150,v,34,34,9,v,1,0.7963312000501901,None,,,,,9,34,34,1,536.8535420000553,,536.8412495001685,536.8535420000553,537.8396184002049,537.8396184002049,537.8396184002049,537.8396184002049,537.8533147000708,538.8469982000533,538.8469982000533,539.6526260999963,,,,,v,1,0.7963312000501901,None,04,001,2025-10-02_11h26.52.613,Motor Sequential Learning,,2025.1.1,72.94887807643727,2025-10-02 11h26.58.698852 +0530,
-150,z,35,35,8,z,1,0.5647054000291973,None,,,,,8,35,35,3,539.6660981001332,,539.653334800154,539.6660981001332,540.6526432000101,540.6526432000101,540.6526432000101,540.6526432000101,540.665907900082,541.6521865001414,541.6521865001414,542.2294801999815,,,,,z,1,0.5647054000291973,None,04,001,2025-10-02_11h26.52.613,Motor Sequential Learning,,2025.1.1,72.94887807643727,2025-10-02 11h26.58.698852 +0530,
-150,z,36,36,9,z,1,0.4512716999743134,None,,,,,9,36,36,3,542.2425505002029,,542.2303433001507,542.2425505002029,543.2284974001814,543.2284974001814,543.2284974001814,543.2284974001814,543.2370019000955,544.2287207001355,544.2287207001355,544.6878490999807,,,,,z,1,0.4512716999743134,None,04,001,2025-10-02_11h26.52.613,Motor Sequential Learning,,2025.1.1,72.94887807643727,2025-10-02 11h26.58.698852 +0530,
-150,z,37,37,10,z,1,0.44189770007506013,None,,,,,10,37,37,3,544.7007767001633,,544.6884102001786,544.7007767001633,545.6867584001739,545.6867584001739,545.6867584001739,545.6867584001739,545.695623600157,546.6874129001517,546.6874129001517,547.1386860001367,,,,,z,1,0.44189770007506013,None,04,001,2025-10-02_11h26.52.613,Motor Sequential Learning,,2025.1.1,72.94887807643727,2025-10-02 11h26.58.698852 +0530,
50,c,38,38,8,c,1,0.7352322000078857,None,,,,,8,38,38,2,547.1522964001633,,547.1391641001683,547.1522964001633,548.1457431002054,548.1457431002054,548.1457431002054,548.1457431002054,548.1590758000966,549.1379297000822,549.1379297000822,549.88231370016,,,,,c,1,0.7352322000078857,None,04,001,2025-10-02_11h26.52.613,Motor Sequential Learning,,2025.1.1,72.94887807643727,2025-10-02 11h26.58.698852 +0530,
150,v,39,39,10,v,1,0.6131857000291348,None,,,,,10,39,39,1,549.8951177001,,549.8828073001932,549.8951177001,550.8815668001771,550.8815668001771,550.8815668001771,550.8815668001771,550.8954073002096,551.8814442001749,551.8814442001749,552.5003665999975,,,,,v,1,0.6131857000291348,None,04,001,2025-10-02_11h26.52.613,Motor Sequential Learning,,2025.1.1,72.94887807643727,2025-10-02 11h26.58.698852 +0530,
150,v,40,40,11,v,1,0.5299943999852985,None,,,,,11,40,40,1,552.5134771000594,,552.5008786001708,552.5134771000594,553.4994959000032,553.4994959000032,553.4994959000032,553.4994959000032,553.5136027000844,554.4994609002024,554.4994609002024,555.0424817001913,,,,,v,1,0.5299943999852985,None,04,001,2025-10-02_11h26.52.613,Motor Sequential Learning,,2025.1.1,72.94887807643727,2025-10-02 11h26.58.698852 +0530,
