pos,corr_resp,thisN,thisTrialN,thisRepN,key_resp.keys,key_resp.corr,key_resp.rt,key_resp.duration,trials.thisRepN,trials.thisTrialN,trials.thisN,trials.thisIndex,trials_2.thisRepN,trials_2.thisTrialN,trials_2.thisN,trials_2.thisIndex,thisRow.t,notes,trial.started,fixation.started,Line_1.started,Line_2.started,Line_3.started,Line_4.started,fixation.stopped,Probe.started,key_resp.started,trial.stopped,trials.key_resp.keys,trials.key_resp.corr,trials.key_resp.rt,trials.key_resp.duration,trials_2.key_resp.keys,trials_2.key_resp.corr,trials_2.key_resp.rt,trials_2.key_resp.duration,participant,session,date,expName,psychopyVersion,frameRate,expStart,
-50,x,0,0,0,x,1,2.485515000007581,None,0,0,0,0,,,,,0.011056000003009103,,0.007776500002364628,0.011056000003009103,0.9948479000013322,0.9948479000013322,0.9948479000013322,0.9948479000013322,1.001798500001314,1.9948662999959197,1.9948662999959197,4.485962599996128,x,1,2.485515000007581,None,,,,,066430,001,2025-10-05_23h21.42.028,Motor Learning,2024.2.4,145.83275607551627,2025-10-05 23h21.52.395922 +0530,
150,v,1,1,0,v,1,1.0781181999918772,None,0,1,1,1,,,,,4.490309000000707,,4.486332799991942,4.490309000000707,5.4803730999992695,5.4803730999992695,5.4803730999992695,5.4803730999992695,5.4803730999992695,6.480269199993927,6.480269199993927,7.564710599996033,v,1,1.0781181999918772,None,,,,,066430,001,2025-10-05_23h21.42.028,Motor Learning,2024.2.4,145.83275607551627,2025-10-05 23h21.52.395922 +0530,
50,c,2,2,0,c,1,1.3319525999977486,None,0,2,2,2,,,,,7.570418300005258,,7.565045900002588,7.570418300005258,8.556143399997381,8.556143399997381,8.556143399997381,8.556143399997381,8.564016699994681,9.556210199996713,9.556210199996713,10.89079700000002,c,1,1.3319525999977486,None,,,,,066430,001,2025-10-05_23h21.42.028,Motor Learning,2024.2.4,145.83275607551627,2025-10-05 23h21.52.395922 +0530,
-150,z,3,3,0,z,1,0.6731212000013329,None,0,3,3,3,,,,,10.896258699998725,,10.891252200002782,10.896258699998725,11.882318999996642,11.882318999996642,11.882318999996642,11.882318999996642,11.889235299997381,12.882260200000019,12.882260200000019,13.55837210000027,z,1,0.6731212000013329,None,,,,,066430,001,2025-10-05_23h21.42.028,Motor Learning,2024.2.4,145.83275607551627,2025-10-05 23h21.52.395922 +0530,
-50,x,4,0,1,x,1,0.6713601000083145,None,1,0,4,0,,,,,13.562923499994213,,13.558785600005649,13.562923499994213,14.548477799995453,14.548477799995453,14.548477799995453,14.548477799995453,14.555355799995596,15.54842560000543,15.54842560000543,16.223375000001397,x,1,0.6713601000083145,None,,,,,066430,001,2025-10-05_23h21.42.028,Motor Learning,2024.2.4,145.83275607551627,2025-10-05 23h21.52.395922 +0530,
150,v,5,1,1,v,1,0.7725710999948205,None,1,1,5,1,,,,,16.228762300001108,,16.223795700003393,16.228762300001108,17.214855099999113,17.214855099999113,17.214855099999113,17.214855099999113,17.221667199992226,18.214751399995293,18.214751399995293,18.993710299997474,v,1,0.7725710999948205,None,,,,,066430,001,2025-10-05_23h21.42.028,Motor Learning,2024.2.4,145.83275607551627,2025-10-05 23h21.52.395922 +0530,
50,c,6,2,1,c,1,1.2379362000065157,None,1,2,6,2,,,,,18.99920239999483,,18.994131300001754,18.99920239999483,19.985361400002148,19.985361400002148,19.985361400002148,19.985361400002148,19.99211999999534,20.984998200001428,20.984998200001428,22.229355899995426,c,1,1.2379362000065157,None,,,,,066430,001,2025-10-05_23h21.42.028,Motor Learning,2024.2.4,145.83275607551627,2025-10-05 23h21.52.395922 +0530,
-150,z,7,3,1,z,1,0.6496290000068257,None,1,3,7,3,,,,,22.234783299994888,,22.229720599993016,22.234783299994888,23.220794099994237,23.220794099994237,23.220794099994237,23.220794099994237,23.227774600003613,24.220528799996828,24.220528799996828,24.874346099997638,z,1,0.6496290000068257,None,,,,,066430,001,2025-10-05_23h21.42.028,Motor Learning,2024.2.4,145.83275607551627,2025-10-05 23h21.52.395922 +0530,
-50,x,8,0,2,x,1,0.6795536999998149,None,2,0,8,0,,,,,24.880180599997402,,24.874557799994363,24.880180599997402,25.867198199994164,25.867198199994164,25.867198199994164,25.867198199994164,25.87337590000243,26.866160499994294,26.866160499994294,27.548731400005636,x,1,0.6795536999998149,None,,,,,066430,001,2025-10-05_23h21.42.028,Motor Learning,2024.2.4,145.83275607551627,2025-10-05 23h21.52.395922 +0530,
150,v,9,1,2,v,1,0.4817878999892855,None,2,1,9,1,,,,,27.55362469999818,,27.54910239999299,27.55362469999818,28.539595099995495,28.539595099995495,28.539595099995495,28.539595099995495,28.546603499999037,29.539452600001823,29.539452600001823,30.02697760000592,v,1,0.4817878999892855,None,,,,,066430,001,2025-10-05_23h21.42.028,Motor Learning,2024.2.4,145.83275607551627,2025-10-05 23h21.52.395922 +0530,
50,c,10,2,2,c,1,0.7247158999962267,None,2,2,10,2,,,,,30.032431899991934,,30.02733709999302,30.032431899991934,31.01841720000084,31.01841720000084,31.01841720000084,31.01841720000084,31.025326599992695,32.01807720000215,32.01807720000215,32.74936349999916,c,1,0.7247158999962267,None,,,,,066430,001,2025-10-05_23h21.42.028,Motor Learning,2024.2.4,145.83275607551627,2025-10-05 23h21.52.395922 +0530,
-150,z,11,3,2,z,1,0.5084258999995654,None,2,3,11,3,,,,,32.7542642000044,,32.74978480000573,32.7542642000044,33.74030859999766,33.74030859999766,33.74030859999766,33.74030859999766,33.74732429999858,34.740056800001184,34.740056800001184,35.25539770000614,z,1,0.5084258999995654,None,,,,,066430,001,2025-10-05_23h21.42.028,Motor Learning,2024.2.4,145.83275607551627,2025-10-05 23h21.52.395922 +0530,
-50,x,12,0,3,x,1,0.6530619999975897,None,3,0,12,0,,,,,35.26060169999255,,35.25580090000585,35.26060169999255,36.2467450999975,36.2467450999975,36.2467450999975,36.2467450999975,36.253769599992665,37.24652040000365,37.24652040000365,37.9020196999918,x,1,0.6530619999975897,None,,,,,066430,001,2025-10-05_23h21.42.028,Motor Learning,2024.2.4,145.83275607551627,2025-10-05 23h21.52.395922 +0530,
150,v,13,1,3,v,1,0.6079861999896821,None,3,1,13,1,,,,,37.906346699994174,,37.902436799995485,37.906346699994174,38.892263400004595,38.892263400004595,38.892263400004595,38.892263400004595,38.89914929999213,39.892056700002286,39.892056700002286,40.50443400000222,v,1,0.6079861999896821,None,,,,,066430,001,2025-10-05_23h21.42.028,Motor Learning,2024.2.4,145.83275607551627,2025-10-05 23h21.52.395922 +0530,
50,c,14,2,3,c,1,0.5456076999980723,None,3,2,14,2,,,,,40.50996670000313,,40.50485230000049,40.50996670000313,41.495949499993,41.495949499993,41.495949499993,41.495949499993,41.50295239999832,42.49587660000543,42.49587660000543,43.04611320000549,c,1,0.5456076999980723,None,,,,,066430,001,2025-10-05_23h21.42.028,Motor Learning,2024.2.4,145.83275607551627,2025-10-05 23h21.52.395922 +0530,
-150,z,15,3,3,z,1,0.5202472999953898,None,3,3,15,3,,,,,43.05127290000382,,43.046527099999366,43.05127290000382,44.03728429999319,44.03728429999319,44.03728429999319,44.03728429999319,44.044325599999866,45.03722199999902,45.03722199999902,45.559591700002784,z,1,0.5202472999953898,None,,,,,066430,001,2025-10-05_23h21.42.028,Motor Learning,2024.2.4,145.83275607551627,2025-10-05 23h21.52.395922 +0530,
-50,x,16,0,4,x,1,0.5770407999953022,None,4,0,16,0,,,,,45.56481419999909,,45.56000810000114,45.56481419999909,46.55068210000172,46.55068210000172,46.55068210000172,46.55068210000172,46.557608200004324,47.55049280000094,47.55049280000094,48.13537469999574,x,1,0.5770407999953022,None,,,,,066430,001,2025-10-05_23h21.42.028,Motor Learning,2024.2.4,145.83275607551627,2025-10-05 23h21.52.395922 +0530,
150,v,17,1,4,v,1,0.5138839999999618,None,4,1,17,1,,,,,48.14080079999985,,48.13578110000526,48.14080079999985,49.12680549999641,49.12680549999641,49.12680549999641,49.12680549999641,49.13368509999418,50.1268873999943,50.1268873999943,50.64231039999868,v,1,0.5138839999999618,None,,,,,066430,001,2025-10-05_23h21.42.028,Motor Learning,2024.2.4,145.83275607551627,2025-10-05 23h21.52.395922 +0530,
50,c,18,2,4,c,1,0.8323383999959333,None,4,2,18,2,,,,,50.64760419999948,,50.64264999999432,50.64760419999948,51.63359219999984,51.63359219999984,51.63359219999984,51.63359219999984,51.64048099999491,52.633350399992196,52.633350399992196,53.468310099997325,c,1,0.8323383999959333,None,,,,,066430,001,2025-10-05_23h21.42.028,Motor Learning,2024.2.4,145.83275607551627,2025-10-05 23h21.52.395922 +0530,
-150,z,19,3,4,z,1,0.5304447000089567,None,4,3,19,3,,,,,53.47343600000022,,53.4686967000016,53.47343600000022,54.45955980000144,54.45955980000144,54.45955980000144,54.45955980000144,54.466365899992525,55.459136699995724,55.459136699995724,55.99559340000269,z,1,0.5304447000089567,None,,,,,066430,001,2025-10-05_23h21.42.028,Motor Learning,2024.2.4,145.83275607551627,2025-10-05 23h21.52.395922 +0530,
-50,x,20,0,5,x,1,0.41538069999660365,None,5,0,20,0,,,,,56.00083210000594,,55.99598940000578,56.00083210000594,56.98680309999327,56.98680309999327,56.98680309999327,56.98680309999327,56.99389820000215,57.986673199993675,57.986673199993675,58.40381160000106,x,1,0.41538069999660365,None,,,,,066430,001,2025-10-05_23h21.42.028,Motor Learning,2024.2.4,145.83275607551627,2025-10-05 23h21.52.395922 +0530,
150,v,21,1,5,v,1,0.45181199999933597,None,5,1,21,1,,,,,58.41013849999581,,58.40404199999466,58.41013849999581,59.39587269999902,59.39587269999902,59.39587269999902,59.39587269999902,59.40281909999612,60.39582109999901,60.39582109999901,60.85100589999638,v,1,0.45181199999933597,None,,,,,066430,001,2025-10-05_23h21.42.028,Motor Learning,2024.2.4,145.83275607551627,2025-10-05 23h21.52.395922 +0530,
50,c,22,2,5,c,1,0.43188869999721646,None,5,2,22,2,,,,,60.85553349999827,,60.85135949999676,60.85553349999827,61.84024649999628,61.84024649999628,61.84024649999628,61.84024649999628,61.84713769999507,62.84024940000381,62.84024940000381,63.27936149999732,c,1,0.43188869999721646,None,,,,,066430,001,2025-10-05_23h21.42.028,Motor Learning,2024.2.4,145.83275607551627,2025-10-05 23h21.52.395922 +0530,
-150,z,23,3,5,z,1,0.4738820000056876,None,5,3,23,3,,,,,63.284581400002935,,63.27975410000363,63.284581400002935,64.27062440000009,64.27062440000009,64.27062440000009,64.27062440000009,64.27751559999888,65.27034010000352,65.27034010000352,65.75069149999763,z,1,0.4738820000056876,None,,,,,066430,001,2025-10-05_23h21.42.028,Motor Learning,2024.2.4,145.83275607551627,2025-10-05 23h21.52.395922 +0530,
-50,x,24,0,6,x,1,0.40734030000749044,None,6,0,24,0,,,,,65.75645000000077,,65.75103800000215,65.75645000000077,66.74240859999554,66.74240859999554,66.74240859999554,66.74240859999554,66.74931210000068,67.74226889999409,67.74226889999409,68.15383300000394,x,1,0.40734030000749044,None,,,,,066430,001,2025-10-05_23h21.42.028,Motor Learning,2024.2.4,145.83275607551627,2025-10-05 23h21.52.395922 +0530,
150,v,25,1,6,v,1,0.42915340000763535,None,6,1,25,1,,,,,68.15879329999734,,68.15414869999222,68.15879329999734,69.14477410000109,69.14477410000109,69.14477410000109,69.14477410000109,69.15157859999454,70.14468399999896,70.14468399999896,70.57811230000516,v,1,0.42915340000763535,None,,,,,066430,001,2025-10-05_23h21.42.028,Motor Learning,2024.2.4,145.83275607551627,2025-10-05 23h21.52.395922 +0530,
50,c,26,2,6,c,1,0.6337787000084063,None,6,2,26,2,,,,,70.58210279999184,,70.5784902000014,70.58210279999184,71.56809529999737,71.56809529999737,71.56809529999737,71.56809529999737,71.57508110000344,72.56781510000292,72.56781510000292,73.2082597999979,c,1,0.6337787000084063,None,,,,,066430,001,2025-10-05_23h21.42.028,Motor Learning,2024.2.4,145.83275607551627,2025-10-05 23h21.52.395922 +0530,
-150,z,27,3,6,z,1,0.44983819998742547,None,6,3,27,3,,,,,73.21362300000328,,73.20867959999305,73.21362300000328,74.19958499999484,74.19958499999484,74.19958499999484,74.19958499999484,74.20663859999331,75.19942989999254,75.19942989999254,75.6517673000053,z,1,0.44983819998742547,None,,,,,066430,001,2025-10-05_23h21.42.028,Motor Learning,2024.2.4,145.83275607551627,2025-10-05 23h21.52.395922 +0530,
-50,x,28,0,7,x,1,0.467571199988015,None,7,0,28,0,,,,,75.65768659999594,,75.65203199999814,75.65768659999594,76.6437983999931,76.6437983999931,76.6437983999931,76.6437983999931,76.65068059999612,77.64369029999943,77.64369029999943,78.11868879999383,x,1,0.467571199988015,None,,,,,066430,001,2025-10-05_23h21.42.028,Motor Learning,2024.2.4,145.83275607551627,2025-10-05 23h21.52.395922 +0530,
150,v,29,1,7,v,1,0.3861075000022538,None,7,1,29,1,,,,,78.12258860000293,,78.11912800000573,78.12258860000293,79.10859730000084,79.10859730000084,79.10859730000084,79.10859730000084,79.11566060000041,80.10845669999253,80.10845669999253,80.4992951000022,v,1,0.3861075000022538,None,,,,,066430,001,2025-10-05_23h21.42.028,Motor Learning,2024.2.4,145.83275607551627,2025-10-05 23h21.52.395922 +0530,
50,c,30,2,7,c,1,0.4026274000061676,None,7,2,30,2,,,,,80.50411480000184,,80.49970420000318,80.50411480000184,81.49010929999349,81.49010929999349,81.49010929999349,81.49010929999349,81.49708040000405,82.48988409999583,82.48988409999583,82.89409159999923,c,1,0.4026274000061676,None,,,,,066430,001,2025-10-05_23h21.42.028,Motor Learning,2024.2.4,145.83275607551627,2025-10-05 23h21.52.395922 +0530,
-150,z,31,3,7,z,1,0.3734406999865314,None,7,3,31,3,,,,,82.89963119999447,,82.89448269999411,82.89963119999447,83.88555069999711,83.88555069999711,83.88555069999711,83.88555069999711,83.89255309999862,84.88561830000253,84.88561830000253,85.26185270000133,z,1,0.3734406999865314,None,,,,,066430,001,2025-10-05_23h21.42.028,Motor Learning,2024.2.4,145.83275607551627,2025-10-05 23h21.52.395922 +0530,
-50,x,32,0,8,x,1,0.3485713999980362,None,8,0,32,0,,,,,85.26740820000123,,85.26223949999257,85.26740820000123,86.25332859999617,86.25332859999617,86.25332859999617,86.25332859999617,86.26014810000197,87.25434420000238,87.25434420000238,87.60887809999986,x,1,0.3485713999980362,None,,,,,066430,001,2025-10-05_23h21.42.028,Motor Learning,2024.2.4,145.83275607551627,2025-10-05 23h21.52.395922 +0530,
150,v,33,1,8,v,1,0.3494328999950085,None,8,1,33,1,,,,,87.61434640000516,,87.6092784999928,87.61434640000516,88.60041780000029,88.60041780000029,88.60041780000029,88.60041780000029,88.60700279999583,89.60021020000568,89.60021020000568,89.95584389999567,v,1,0.3494328999950085,None,,,,,066430,001,2025-10-05_23h21.42.028,Motor Learning,2024.2.4,145.83275607551627,2025-10-05 23h21.52.395922 +0530,
50,c,34,2,8,c,1,0.2939862999919569,None,8,2,34,2,,,,,89.96128619999217,,89.95634509999945,89.96128619999217,90.94703049999953,90.94703049999953,90.94703049999953,90.94703049999953,90.95408399999724,91.94685700000264,91.94685700000264,92.24726329999976,c,1,0.2939862999919569,None,,,,,066430,001,2025-10-05_23h21.42.028,Motor Learning,2024.2.4,145.83275607551627,2025-10-05 23h21.52.395922 +0530,
-150,z,35,3,8,z,1,0.2856534000020474,None,8,3,35,3,,,,,92.25249240000267,,92.24768109999422,92.25249240000267,93.23859680000169,93.23859680000169,93.23859680000169,93.23859680000169,93.245522600002,94.23840240000573,94.23840240000573,94.53160289999505,z,1,0.2856534000020474,None,,,,,066430,001,2025-10-05_23h21.42.028,Motor Learning,2024.2.4,145.83275607551627,2025-10-05 23h21.52.395922 +0530,
-50,x,36,0,9,x,1,0.35912269999971613,None,9,0,36,0,,,,,94.53692149999551,,94.53197029999865,94.53692149999551,95.52279220000491,95.52279220000491,95.52279220000491,95.52279220000491,95.52977389999432,96.52269640000304,96.52269640000304,96.88495530000364,x,1,0.35912269999971613,None,,,,,066430,001,2025-10-05_23h21.42.028,Motor Learning,2024.2.4,145.83275607551627,2025-10-05 23h21.52.395922 +0530,
150,v,37,1,9,v,1,0.3143917999987025,None,9,1,37,1,,,,,96.89060569999856,,96.88531019999937,96.89060569999856,97.87669150000147,97.87669150000147,97.87669150000147,97.87669150000147,97.88380419999885,98.87652979999257,98.87652979999257,99.19733369999449,v,1,0.3143917999987025,None,,,,,066430,001,2025-10-05_23h21.42.028,Motor Learning,2024.2.4,145.83275607551627,2025-10-05 23h21.52.395922 +0530,
50,c,38,2,9,c,1,0.2801692000066396,None,9,2,38,2,,,,,99.20301159999508,,99.1976985999936,99.20301159999508,100.18866460000572,100.18866460000572,100.18866460000572,100.18866460000572,100.19582870000158,101.18867790000513,101.18867790000513,101.4751385999989,c,1,0.2801692000066396,None,,,,,066430,001,2025-10-05_23h21.42.028,Motor Learning,2024.2.4,145.83275607551627,2025-10-05 23h21.52.395922 +0530,
-150,z,39,3,9,z,1,0.293590100001893,None,9,3,39,3,,,,,101.48016659999848,,101.47550400000182,101.48016659999848,102.46632320000208,102.46632320000208,102.46632320000208,102.46632320000208,102.47326529999555,103.46628959999362,103.46628959999362,103.76650480000535,z,1,0.293590100001893,None,,,,,066430,001,2025-10-05_23h21.42.028,Motor Learning,2024.2.4,145.83275607551627,2025-10-05 23h21.52.395922 +0530,
-50,x,40,0,10,x,1,0.2866966999863507,None,10,0,40,0,,,,,103.771585399998,,103.76701519999187,103.771585399998,104.75763949999237,104.75763949999237,104.75763949999237,104.75763949999237,104.76448149999487,105.75748949999979,105.75748949999979,106.05091239999456,x,1,0.2866966999863507,None,,,,,066430,001,2025-10-05_23h21.42.028,Motor Learning,2024.2.4,145.83275607551627,2025-10-05 23h21.52.395922 +0530,
150,v,41,1,10,v,1,0.3116245999990497,None,10,1,41,1,,,,,106.05600419999973,,106.05134370000451,106.05600419999973,107.04198209999595,107.04198209999595,107.04198209999595,107.04198209999595,107.04879359999904,108.04209760000231,108.04209760000231,108.35618829999294,v,1,0.3116245999990497,None,,,,,066430,001,2025-10-05_23h21.42.028,Motor Learning,2024.2.4,145.83275607551627,2025-10-05 23h21.52.395922 +0530,
50,c,42,2,10,c,1,0.2812913999950979,None,10,2,42,2,,,,,108.36112719999801,,108.3566143999924,108.36112719999801,109.34747029999562,109.34747029999562,109.34747029999562,109.34747029999562,109.35423609999998,110.34704360000615,110.34704360000615,110.63375459999952,c,1,0.2812913999950979,None,,,,,066430,001,2025-10-05_23h21.42.028,Motor Learning,2024.2.4,145.83275607551627,2025-10-05 23h21.52.395922 +0530,
-150,z,43,3,10,z,1,0.36260890000266954,None,10,3,43,3,,,,,110.63874690000375,,110.63440900000569,110.63874690000375,111.62464729999192,111.62464729999192,111.62464729999192,111.62464729999192,111.63168579999183,112.62451589999546,112.62451589999546,112.99445549999655,z,1,0.36260890000266954,None,,,,,066430,001,2025-10-05_23h21.42.028,Motor Learning,2024.2.4,145.83275607551627,2025-10-05 23h21.52.395922 +0530,
-50,x,44,0,11,x,1,0.29966060000879224,None,11,0,44,0,,,,,112.99954129999969,,112.99485239999194,112.99954129999969,113.98559699999169,113.98559699999169,113.98559699999169,113.98559699999169,113.99233269999968,114.98531329999969,114.98531329999969,115.2920654000045,x,1,0.29966060000879224,None,,,,,066430,001,2025-10-05_23h21.42.028,Motor Learning,2024.2.4,145.83275607551627,2025-10-05 23h21.52.395922 +0530,
150,v,45,1,11,v,1,0.40747400000691414,None,11,1,45,1,,,,,115.29776299999503,,115.29244799999287,115.29776299999503,116.2838894000015,116.2838894000015,116.2838894000015,116.2838894000015,116.2905987999984,117.28368619999674,117.28368619999674,117.69507319999684,v,1,0.40747400000691414,None,,,,,066430,001,2025-10-05_23h21.42.028,Motor Learning,2024.2.4,145.83275607551627,2025-10-05 23h21.52.395922 +0530,
50,c,46,2,11,c,1,0.36324360000435263,None,11,2,46,2,,,,,117.70043579999765,,117.69547229999444,117.70043579999765,118.68614059999527,118.68614059999527,118.68614059999527,118.68614059999527,118.69319689999975,119.68585589999566,119.68585589999566,120.05549709999468,c,1,0.36324360000435263,None,,,,,066430,001,2025-10-05_23h21.42.028,Motor Learning,2024.2.4,145.83275607551627,2025-10-05 23h21.52.395922 +0530,
-150,z,47,3,11,z,1,0.3700638999871444,None,11,3,47,3,,,,,120.06107539999357,,120.05586759999278,120.06107539999357,121.04678540000168,121.04678540000168,121.04678540000168,121.04678540000168,121.0539615000016,122.04681030000211,122.04681030000211,122.42190390000178,z,1,0.3700638999871444,None,,,,,066430,001,2025-10-05_23h21.42.028,Motor Learning,2024.2.4,145.83275607551627,2025-10-05 23h21.52.395922 +0530,
-50,x,48,0,12,x,1,0.40782199999375734,None,12,0,48,0,,,,,122.42834529999527,,122.42210349999368,122.42834529999527,123.41458799999964,123.41458799999964,123.41458799999964,123.41458799999964,123.42149120000249,124.4145356999943,124.4145356999943,124.82610999999451,x,1,0.40782199999375734,None,,,,,066430,001,2025-10-05_23h21.42.028,Motor Learning,2024.2.4,145.83275607551627,2025-10-05 23h21.52.395922 +0530,
150,v,49,1,12,v,1,0.3446133999968879,None,12,1,49,1,,,,,124.83103279999341,,124.82651400000032,124.83103279999341,125.81692090000433,125.81692090000433,125.81692090000433,125.81692090000433,125.82399659999646,126.81699659999867,126.81699659999867,127.16568390000612,v,1,0.3446133999968879,None,,,,,066430,001,2025-10-05_23h21.42.028,Motor Learning,2024.2.4,145.83275607551627,2025-10-05 23h21.52.395922 +0530,
50,c,50,2,12,c,1,0.30213820000062697,None,12,2,50,2,,,,,127.17101309999998,,127.16608719999203,127.17101309999998,128.1569812999951,128.1569812999951,128.1569812999951,128.1569812999951,128.16389789999812,129.1568660000048,129.1568660000048,129.4640739000024,c,1,0.30213820000062697,None,,,,,066430,001,2025-10-05_23h21.42.028,Motor Learning,2024.2.4,145.83275607551627,2025-10-05 23h21.52.395922 +0530,
-150,z,51,3,12,z,1,0.31906130000425037,None,12,3,51,3,,,,,129.46928550000302,,129.46446030000516,129.46928550000302,130.45537969999714,130.45537969999714,130.45537969999714,130.45537969999714,130.46223720000125,131.45509139999922,131.45509139999922,131.77626179999788,z,1,0.31906130000425037,None,,,,,066430,001,2025-10-05_23h21.42.028,Motor Learning,2024.2.4,145.83275607551627,2025-10-05 23h21.52.395922 +0530,
-50,x,52,0,13,x,1,0.29856280000240076,None,13,0,52,0,,,,,131.78136130000348,,131.7766632999992,131.78136130000348,132.76738309999928,132.76738309999928,132.76738309999928,132.76738309999928,132.77436209999723,133.76722419999714,133.76722419999714,134.06768439999723,x,1,0.29856280000240076,None,,,,,066430,001,2025-10-05_23h21.42.028,Motor Learning,2024.2.4,145.83275607551627,2025-10-05 23h21.52.395922 +0530,
150,v,53,1,13,v,1,0.30120509999687783,None,13,1,53,1,,,,,134.07287930000166,,134.0680599000043,134.07287930000166,135.05875159999414,135.05875159999414,135.05875159999414,135.05875159999414,135.0657230999932,136.05858270000317,136.05858270000317,136.36571299999196,v,1,0.30120509999687783,None,,,,,066430,001,2025-10-05_23h21.42.028,Motor Learning,2024.2.4,145.83275607551627,2025-10-05 23h21.52.395922 +0530,
50,c,54,2,13,c,1,0.31842039999901317,None,13,2,54,2,,,,,136.3709036999935,,136.36607580000418,136.3709036999935,137.35711650000303,137.35711650000303,137.35711650000303,137.35711650000303,137.36414299999888,138.35700879999786,138.35700879999786,138.67826179999975,c,1,0.31842039999901317,None,,,,,066430,001,2025-10-05_23h21.42.028,Motor Learning,2024.2.4,145.83275607551627,2025-10-05 23h21.52.395922 +0530,
-150,z,55,3,13,z,1,0.3950588000006974,None,13,3,55,3,,,,,138.6832785000006,,138.67871849999938,138.6832785000006,139.66906440000457,139.66906440000457,139.66906440000457,139.66906440000457,139.67610250000143,140.6691804000002,140.6691804000002,141.06691480000154,z,1,0.3950588000006974,None,,,,,066430,001,2025-10-05_23h21.42.028,Motor Learning,2024.2.4,145.83275607551627,2025-10-05 23h21.52.395922 +0530,
-50,x,56,0,14,x,1,0.3605314000014914,None,14,0,56,0,,,,,141.0717389999918,,141.06737010000506,141.0717389999918,142.05775910000375,142.05775910000375,142.05775910000375,142.05775910000375,142.06466200000432,143.0576476999995,143.0576476999995,143.42051860000356,x,1,0.3605314000014914,None,,,,,066430,001,2025-10-05_23h21.42.028,Motor Learning,2024.2.4,145.83275607551627,2025-10-05 23h21.52.395922 +0530,
150,v,57,1,14,v,1,0.26225820000399835,None,14,1,57,1,,,,,143.42583189999277,,143.4208687999926,143.42583189999277,144.41154479999386,144.41154479999386,144.41154479999386,144.41154479999386,144.41861900000367,145.41161900000589,145.41161900000589,145.67748949999805,v,1,0.26225820000399835,None,,,,,066430,001,2025-10-05_23h21.42.028,Motor Learning,2024.2.4,145.83275607551627,2025-10-05 23h21.52.395922 +0530,
50,c,58,2,14,c,1,0.29510259999369737,None,14,2,58,2,,,,,145.68291970000428,,145.6778920999932,145.68291970000428,146.66827799999737,146.66827799999737,146.66827799999737,146.66827799999737,146.67529270000523,147.6681161000015,147.6681161000015,147.96815210000204,c,1,0.29510259999369737,None,,,,,066430,001,2025-10-05_23h21.42.028,Motor Learning,2024.2.4,145.83275607551627,2025-10-05 23h21.52.395922 +0530,
-150,z,59,3,14,z,1,0.23627009999472648,None,14,3,59,3,,,,,147.97351399999752,,147.96851760000573,147.97351399999752,148.95966249999765,148.95966249999765,148.95966249999765,148.95966249999765,148.96641649999947,149.9595546000055,149.9595546000055,150.19767619999766,z,1,0.23627009999472648,None,,,,,066430,001,2025-10-05_23h21.42.028,Motor Learning,2024.2.4,145.83275607551627,2025-10-05 23h21.52.395922 +0530,
-50,x,60,0,15,x,1,0.25330110000504646,None,15,0,60,0,,,,,150.20239639999636,,150.198083700001,150.20239639999636,151.188553400003,151.188553400003,151.188553400003,151.188553400003,151.195461299998,152.18827389999933,152.18827389999933,152.44720579999557,x,1,0.25330110000504646,None,,,,,066430,001,2025-10-05_23h21.42.028,Motor Learning,2024.2.4,145.83275607551627,2025-10-05 23h21.52.395922 +0530,
150,v,61,1,15,v,1,0.27281669998774305,None,15,1,61,1,,,,,152.4521939999977,,152.4476696000056,152.4521939999977,153.4380220000021,153.4380220000021,153.4380220000021,153.4380220000021,153.44513559999177,154.43799960000615,154.43799960000615,154.71749710000586,v,1,0.27281669998774305,None,,,,,066430,001,2025-10-05_23h21.42.028,Motor Learning,2024.2.4,145.83275607551627,2025-10-05 23h21.52.395922 +0530,
50,c,62,2,15,c,1,0.2851019000081578,None,15,2,62,2,,,,,154.72252799999842,,154.7179302000004,154.72252799999842,155.70859799999744,155.70859799999744,155.70859799999744,155.70859799999744,155.71555320000334,156.70855579999625,156.70855579999625,157.00091629999224,c,1,0.2851019000081578,None,,,,,066430,001,2025-10-05_23h21.42.028,Motor Learning,2024.2.4,145.83275607551627,2025-10-05 23h21.52.395922 +0530,
-150,z,63,3,15,z,1,0.2660940999921877,None,15,3,63,3,,,,,157.00703079999948,,157.00124440000218,157.00703079999948,157.99291159999848,157.99291159999848,157.99291159999848,157.99291159999848,158.0001573000045,158.9927677999949,158.9927677999949,159.26529680000385,z,1,0.2660940999921877,None,,,,,066430,001,2025-10-05_23h21.42.028,Motor Learning,2024.2.4,145.83275607551627,2025-10-05 23h21.52.395922 +0530,
-50,x,64,0,16,x,1,0.26095250000071246,None,16,0,64,0,,,,,159.2706851999974,,159.2656946999923,159.2706851999974,160.25657660000434,160.25657660000434,160.25657660000434,160.25657660000434,160.26343789999373,161.25629459999618,161.25629459999618,161.52159039999242,x,1,0.26095250000071246,None,,,,,066430,001,2025-10-05_23h21.42.028,Motor Learning,2024.2.4,145.83275607551627,2025-10-05 23h21.52.395922 +0530,
150,v,65,1,16,v,1,0.2744824000110384,None,16,1,65,1,,,,,161.52723900000274,,161.5219669999933,161.52723900000274,162.51297789999808,162.51297789999808,162.51297789999808,162.51297789999808,162.52010809999774,163.51303349999944,163.51303349999944,163.79285399999935,v,1,0.2744824000110384,None,,,,,066430,001,2025-10-05_23h21.42.028,Motor Learning,2024.2.4,145.83275607551627,2025-10-05 23h21.52.395922 +0530,
50,c,66,2,16,c,1,0.4871826000016881,None,16,2,66,2,,,,,163.79825490000076,,163.79331239999738,163.79825490000076,164.78368310000224,164.78368310000224,164.78368310000224,164.78368310000224,164.79080439999234,165.78352389999782,165.78352389999782,166.27825909999956,c,1,0.4871826000016881,None,,,,,066430,001,2025-10-05_23h21.42.028,Motor Learning,2024.2.4,145.83275607551627,2025-10-05 23h21.52.395922 +0530,
-150,z,67,3,16,z,1,0.42477579999831505,None,16,3,67,3,,,,,166.28338720000465,,166.27865290000045,166.28338720000465,167.2693214000028,167.2693214000028,167.2693214000028,167.2693214000028,167.2763796999934,168.2692146000045,168.2692146000045,168.70152020000387,z,1,0.42477579999831505,None,,,,,066430,001,2025-10-05_23h21.42.028,Motor Learning,2024.2.4,145.83275607551627,2025-10-05 23h21.52.395922 +0530,
-50,x,68,0,17,x,1,0.3327811999915866,None,17,0,68,0,,,,,168.70668770000339,,168.7019891999953,168.70668770000339,169.6927762999985,169.6927762999985,169.6927762999985,169.6927762999985,169.69970990000002,170.69264199999452,170.69264199999452,171.02783409999392,x,1,0.3327811999915866,None,,,,,066430,001,2025-10-05_23h21.42.028,Motor Learning,2024.2.4,145.83275607551627,2025-10-05 23h21.52.395922 +0530,
150,v,69,1,17,v,1,0.36682890000520274,None,17,1,69,1,,,,,171.0327180000022,,171.02832579999813,171.0327180000022,172.018816900003,172.018816900003,172.018816900003,172.018816900003,172.02578939999512,173.01866590000282,173.01866590000282,173.3881337000057,v,1,0.36682890000520274,None,,,,,066430,001,2025-10-05_23h21.42.028,Motor Learning,2024.2.4,145.83275607551627,2025-10-05 23h21.52.395922 +0530,
50,c,70,2,17,c,1,0.26199879999330733,None,17,2,70,2,,,,,173.393588299994,,173.3884803999972,173.393588299994,174.37960380000004,174.37960380000004,174.37960380000004,174.37960380000004,174.38656179999816,175.37938899999426,175.37938899999426,175.6442962000001,c,1,0.26199879999330733,None,,,,,066430,001,2025-10-05_23h21.42.028,Motor Learning,2024.2.4,145.83275607551627,2025-10-05 23h21.52.395922 +0530,
-150,z,71,3,17,z,1,0.40420459999586456,None,17,3,71,3,,,,,175.65023349999683,,175.64449079999758,175.65023349999683,176.63616280000133,176.63616280000133,176.63616280000133,176.63616280000133,176.64317290000326,177.63601899999776,177.63601899999776,178.04725459999463,z,1,0.40420459999586456,None,,,,,066430,001,2025-10-05_23h21.42.028,Motor Learning,2024.2.4,145.83275607551627,2025-10-05 23h21.52.395922 +0530,
-50,x,72,0,18,x,1,0.3335250999953132,None,18,0,72,0,,,,,178.05265189999773,,178.0476198999968,178.05265189999773,179.03857809999317,179.03857809999317,179.03857809999317,179.03857809999317,179.04558330000145,180.03852119999647,180.03852119999647,180.3739945999987,x,1,0.3335250999953132,None,,,,,066430,001,2025-10-05_23h21.42.028,Motor Learning,2024.2.4,145.83275607551627,2025-10-05 23h21.52.395922 +0530,
150,v,73,1,18,v,1,0.3871849999995902,None,18,1,73,1,,,,,180.37881959999504,,180.37438700000348,180.37881959999504,181.36470940000436,181.36470940000436,181.36470940000436,181.36470940000436,181.37148159999924,182.36459179999656,182.36459179999656,182.75515709999308,v,1,0.3871849999995902,None,,,,,066430,001,2025-10-05_23h21.42.028,Motor Learning,2024.2.4,145.83275607551627,2025-10-05 23h21.52.395922 +0530,
50,c,74,2,18,c,1,0.2949827000120422,None,18,2,74,2,,,,,182.76036380000005,,182.75553739999305,182.76036380000005,183.7462472000043,183.7462472000043,183.7462472000043,183.7462472000043,183.7532601999992,184.74603949999437,184.74603949999437,185.04617919999873,c,1,0.2949827000120422,None,,,,,066430,001,2025-10-05_23h21.42.028,Motor Learning,2024.2.4,145.83275607551627,2025-10-05 23h21.52.395922 +0530,
-150,z,75,3,18,z,1,0.485721500008367,None,18,3,75,3,,,,,185.0517389000015,,185.04657249999582,185.0517389000015,186.03758940000262,186.03758940000262,186.03758940000262,186.03758940000262,186.0445322000014,187.03734369999438,187.03734369999438,187.52487850000034,z,1,0.485721500008367,None,,,,,066430,001,2025-10-05_23h21.42.028,Motor Learning,2024.2.4,145.83275607551627,2025-10-05 23h21.52.395922 +0530,
-50,x,76,0,19,x,1,0.4311517000023741,None,19,0,76,0,,,,,187.53032269999676,,187.52510139999504,187.53032269999676,188.51635960000567,188.51635960000567,188.51635960000567,188.51635960000567,188.52332399999432,189.51641019999806,189.51641019999806,189.955289000005,x,1,0.4311517000023741,None,,,,,066430,001,2025-10-05_23h21.42.028,Motor Learning,2024.2.4,145.83275607551627,2025-10-05 23h21.52.395922 +0530,
150,v,77,1,19,v,1,0.47901599999750033,None,19,1,77,1,,,,,189.9605792999937,,189.95564859999286,189.9605792999937,190.94656690000556,190.94656690000556,190.94656690000556,190.94656690000556,190.95347089999996,191.94652539999515,191.94652539999515,192.42722169999615,v,1,0.47901599999750033,None,,,,,066430,001,2025-10-05_23h21.42.028,Motor Learning,2024.2.4,145.83275607551627,2025-10-05 23h21.52.395922 +0530,
50,c,78,2,19,c,1,0.35569419999956153,None,19,2,78,2,,,,,192.4325028000021,,192.427640599999,192.4325028000021,193.41850220000197,193.41850220000197,193.41850220000197,193.41850220000197,193.42552970000543,194.41845610000018,194.41845610000018,194.7810235999932,c,1,0.35569419999956153,None,,,,,066430,001,2025-10-05_23h21.42.028,Motor Learning,2024.2.4,145.83275607551627,2025-10-05 23h21.52.395922 +0530,
-150,z,79,3,19,z,1,0.521914500001003,None,19,3,79,3,,,,,194.78626029999577,,194.7813892999984,194.78626029999577,195.77220629999647,195.77220629999647,195.77220629999647,195.77220629999647,195.7791689000005,196.7721731999918,196.7721731999918,197.3011792000034,z,1,0.521914500001003,None,,,,,066430,001,2025-10-05_23h21.42.028,Motor Learning,2024.2.4,145.83275607551627,2025-10-05 23h21.52.395922 +0530,
-50,x,80,0,20,x,1,0.4296597000065958,None,20,0,80,0,,,,,197.30664989999786,,197.30153310000605,197.30664989999786,198.29281820000324,198.29281820000324,198.29281820000324,198.29281820000324,198.29977230000077,199.29261069999484,199.29261069999484,199.72477159999835,x,1,0.4296597000065958,None,,,,,066430,001,2025-10-05_23h21.42.028,Motor Learning,2024.2.4,145.83275607551627,2025-10-05 23h21.52.395922 +0530,
150,v,81,1,20,v,1,0.418030800006818,None,20,1,81,1,,,,,199.72982809999667,,199.72515640000347,199.72982809999667,200.71595139999408,200.71595139999408,200.71595139999408,200.71595139999408,200.7228347999917,201.71589969999332,201.71589969999332,202.14050219999626,v,1,0.418030800006818,None,,,,,066430,001,2025-10-05_23h21.42.028,Motor Learning,2024.2.4,145.83275607551627,2025-10-05 23h21.52.395922 +0530,
50,c,82,2,20,c,1,0.427973199999542,None,20,2,82,2,,,,,202.14636210000026,,202.14084419999563,202.14636210000026,203.13242189999437,203.13242189999437,203.13242189999437,203.13242189999437,203.13925720000407,204.13221189999604,204.13221189999604,204.56423590000486,c,1,0.427973199999542,None,,,,,066430,001,2025-10-05_23h21.42.028,Motor Learning,2024.2.4,145.83275607551627,2025-10-05 23h21.52.395922 +0530,
-150,z,83,3,20,z,1,0.4578335000114748,None,20,3,83,3,,,,,204.56963470000483,,204.56464199999755,204.56963470000483,205.55566850000469,205.55566850000469,205.55566850000469,205.55566850000469,205.5623360000027,206.55519119999371,206.55519119999371,207.0153447000048,z,1,0.4578335000114748,None,,,,,066430,001,2025-10-05_23h21.42.028,Motor Learning,2024.2.4,145.83275607551627,2025-10-05 23h21.52.395922 +0530,
-50,x,84,0,21,x,1,0.32814139999391045,None,21,0,84,0,,,,,207.0206068999978,,207.01576219999697,207.0206068999978,208.00671309999598,208.00671309999598,208.00671309999598,208.00671309999598,208.01347439999518,209.0064229999989,209.0064229999989,209.34105449999333,x,1,0.32814139999391045,None,,,,,066430,001,2025-10-05_23h21.42.028,Motor Learning,2024.2.4,145.83275607551627,2025-10-05 23h21.52.395922 +0530,
150,v,85,1,21,v,1,0.3050520999968285,None,21,1,85,1,,,,,209.34664210000483,,209.34149310000066,209.34664210000483,210.33243159999256,210.33243159999256,210.33243159999256,210.33243159999256,210.3394483000011,211.33261420000053,211.33261420000053,211.63974579999922,v,1,0.3050520999968285,None,,,,,066430,001,2025-10-05_23h21.42.028,Motor Learning,2024.2.4,145.83275607551627,2025-10-05 23h21.52.395922 +0530,
50,c,86,2,21,c,1,0.45270500000333413,None,21,2,86,2,,,,,211.64492029999383,,211.64017240000248,211.64492029999383,212.6310933000059,212.6310933000059,212.6310933000059,212.6310933000059,212.63798279999173,213.630699500005,213.630699500005,214.0900752000016,c,1,0.45270500000333413,None,,,,,066430,001,2025-10-05_23h21.42.028,Motor Learning,2024.2.4,145.83275607551627,2025-10-05 23h21.52.395922 +0530,
-150,z,87,3,21,z,1,0.40398540000023786,None,21,3,87,3,,,,,214.09583099999873,,214.0903937999974,214.09583099999873,215.08199779999268,215.08199779999268,215.08199779999268,215.08199779999268,215.0889729000046,216.08176079999248,216.08176079999248,216.49293160000525,z,1,0.40398540000023786,None,,,,,066430,001,2025-10-05_23h21.42.028,Motor Learning,2024.2.4,145.83275607551627,2025-10-05 23h21.52.395922 +0530,
-50,x,88,0,22,x,1,0.35555459999886807,None,22,0,88,0,,,,,216.49838780000573,,216.49341419999837,216.49838780000573,217.48438900000474,217.48438900000474,217.48438900000474,217.48438900000474,217.491520399999,218.4846116999979,218.4846116999979,218.84687609999673,x,1,0.35555459999886807,None,,,,,066430,001,2025-10-05_23h21.42.028,Motor Learning,2024.2.4,145.83275607551627,2025-10-05 23h21.52.395922 +0530,
150,v,89,1,22,v,1,0.3310423999937484,None,22,1,89,1,,,,,218.85219920000236,,218.8473887,218.85219920000236,219.8382997000008,219.8382997000008,219.8382997000008,219.8382997000008,219.84528480000154,220.83858339999279,220.83858339999279,221.17315020000387,v,1,0.3310423999937484,None,,,,,066430,001,2025-10-05_23h21.42.028,Motor Learning,2024.2.4,145.83275607551627,2025-10-05 23h21.52.395922 +0530,
50,c,90,2,22,c,1,0.316331000009086,None,22,2,90,2,,,,,221.17819130000134,,221.1735738999996,221.17819130000134,222.16411470000457,222.16411470000457,222.16411470000457,222.16411470000457,222.1710483999923,223.16405259999738,223.16405259999738,223.48507739999332,c,1,0.316331000009086,None,,,,,066430,001,2025-10-05_23h21.42.028,Motor Learning,2024.2.4,145.83275607551627,2025-10-05 23h21.52.395922 +0530,
-150,z,91,3,22,z,1,0.27478510000219103,None,22,3,91,3,,,,,223.4903825999936,,223.48551810000208,223.4903825999936,224.47644060000312,224.47644060000312,224.47644060000312,224.47644060000312,224.4831550999952,225.47618420000072,225.47618420000072,225.7556726000039,z,1,0.27478510000219103,None,,,,,066430,001,2025-10-05_23h21.42.028,Motor Learning,2024.2.4,145.83275607551627,2025-10-05 23h21.52.395922 +0530,
-50,x,92,0,23,x,1,0.2580747000029078,None,23,0,92,0,,,,,225.76095300000452,,225.75607249999302,225.76095300000452,226.74690359999659,226.74690359999659,226.74690359999659,226.74690359999659,226.75382810000156,227.74685229999886,227.74685229999886,228.01209879999806,x,1,0.2580747000029078,None,,,,,066430,001,2025-10-05_23h21.42.028,Motor Learning,2024.2.4,145.83275607551627,2025-10-05 23h21.52.395922 +0530,
150,v,93,1,23,v,1,0.23742140000103973,None,23,1,93,1,,,,,228.01775349999662,,228.0125537999993,228.01775349999662,229.00366550000035,229.00366550000035,229.00366550000035,229.00366550000035,229.01053189999948,230.00352790000034,230.00352790000034,230.24802250000357,v,1,0.23742140000103973,None,,,,,066430,001,2025-10-05_23h21.42.028,Motor Learning,2024.2.4,145.83275607551627,2025-10-05 23h21.52.395922 +0530,
50,c,94,2,23,c,1,0.28044970000337344,None,23,2,94,2,,,,,230.25333799999498,,230.24844070000108,230.25333799999498,231.23922350000066,231.23922350000066,231.23922350000066,231.23922350000066,231.24627699999837,232.2392567999923,232.2392567999923,232.525146400003,c,1,0.28044970000337344,None,,,,,066430,001,2025-10-05_23h21.42.028,Motor Learning,2024.2.4,145.83275607551627,2025-10-05 23h21.52.395922 +0530,
-150,z,95,3,23,z,1,0.2558394999941811,None,23,3,95,3,,,,,232.5307879000029,,232.52552429999923,232.5307879000029,233.51687870000023,233.51687870000023,233.51687870000023,233.51687870000023,233.52381090000563,234.51663949999784,234.51663949999784,234.77523309999378,z,1,0.2558394999941811,None,,,,,066430,001,2025-10-05_23h21.42.028,Motor Learning,2024.2.4,145.83275607551627,2025-10-05 23h21.52.395922 +0530,
-50,x,96,0,24,x,1,0.25053659999684896,None,24,0,96,0,,,,,234.78042500000447,,234.77563879999798,234.78042500000447,235.76649619999807,235.76649619999807,235.76649619999807,235.76649619999807,235.7734272999951,236.7665108999936,236.7665108999936,237.02400659999694,x,1,0.25053659999684896,None,,,,,066430,001,2025-10-05_23h21.42.028,Motor Learning,2024.2.4,145.83275607551627,2025-10-05 23h21.52.395922 +0530,
150,v,97,1,24,v,1,0.27713620000577066,None,24,1,97,1,,,,,237.03019499999937,,237.02429279999342,237.03019499999937,238.01628179999534,238.01628179999534,238.01628179999534,238.01628179999534,238.02314049999404,239.01602880000428,239.01602880000428,239.29550189999281,v,1,0.27713620000577066,None,,,,,066430,001,2025-10-05_23h21.42.028,Motor Learning,2024.2.4,145.83275607551627,2025-10-05 23h21.52.395922 +0530,
50,c,98,2,24,c,1,0.548953799996525,None,24,2,98,2,,,,,239.30061330000171,,239.29593900000327,239.30061330000171,240.28662640000402,240.28662640000402,240.28662640000402,240.28662640000402,240.29364819999319,241.28633829999308,241.28633829999308,241.83770400000503,c,1,0.548953799996525,None,,,,,066430,001,2025-10-05_23h21.42.028,Motor Learning,2024.2.4,145.83275607551627,2025-10-05 23h21.52.395922 +0530,
-150,z,99,3,24,z,1,0.3223437999986345,None,24,3,99,3,,,,,241.8422120000032,,241.8380818000005,241.8422120000032,242.82790139999997,242.82790139999997,242.82790139999997,242.82790139999997,242.8346784000023,243.82793030000175,243.82793030000175,244.15510289999656,z,1,0.3223437999986345,None,,,,,066430,001,2025-10-05_23h21.42.028,Motor Learning,2024.2.4,145.83275607551627,2025-10-05 23h21.52.395922 +0530,
-50,x,100,0,25,x,1,0.30350280000129715,None,25,0,100,0,,,,,244.16105529999186,,244.15539329999592,244.16105529999186,245.1468695999938,245.1468695999938,245.1468695999938,245.1468695999938,245.15372539999953,246.14684149999812,246.14684149999812,246.453606199997,x,1,0.30350280000129715,None,,,,,066430,001,2025-10-05_23h21.42.028,Motor Learning,2024.2.4,145.83275607551627,2025-10-05 23h21.52.395922 +0530,
150,v,101,1,25,v,1,0.333401000010781,None,25,1,101,1,,,,,246.459288500002,,246.45395959999587,246.459288500002,247.44514729999355,247.44514729999355,247.44514729999355,247.44514729999355,247.45231670000067,248.4450618999981,248.4450618999981,248.78053139999975,v,1,0.333401000010781,None,,,,,066430,001,2025-10-05_23h21.42.028,Motor Learning,2024.2.4,145.83275607551627,2025-10-05 23h21.52.395922 +0530,
50,c,102,2,25,c,1,0.4333104999968782,None,25,2,102,2,,,,,248.78523159999168,,248.7809230999992,248.78523159999168,249.7713659000001,249.7713659000001,249.7713659000001,249.7713659000001,249.77838780000457,250.77113649999956,250.77113649999956,251.2097095999925,c,1,0.4333104999968782,None,,,,,066430,001,2025-10-05_23h21.42.028,Motor Learning,2024.2.4,145.83275607551627,2025-10-05 23h21.52.395922 +0530,
-150,z,103,3,25,z,1,0.3447274999925867,None,25,3,103,3,,,,,251.21584639999492,,251.20996110000124,251.21584639999492,252.20158720000472,252.20158720000472,252.20158720000472,252.20158720000472,252.20872999999847,253.20131530000072,253.20131530000072,253.54995349999808,z,1,0.3447274999925867,None,,,,,066430,001,2025-10-05_23h21.42.028,Motor Learning,2024.2.4,145.83275607551627,2025-10-05 23h21.52.395922 +0530,
-50,x,104,0,26,x,1,0.33997630000521895,None,26,0,104,0,,,,,253.55556759999308,,253.55033149999508,253.55556759999308,254.54143830000248,254.54143830000248,254.54143830000248,254.54143830000248,254.54852460000257,255.54119940000237,255.54119940000237,255.88388829999894,x,1,0.33997630000521895,None,,,,,066430,001,2025-10-05_23h21.42.028,Motor Learning,2024.2.4,145.83275607551627,2025-10-05 23h21.52.395922 +0530,
150,v,105,1,26,v,1,0.275565199990524,None,26,1,105,1,,,,,255.88838370000303,,255.88428949999798,255.88838370000303,256.87445049999224,256.87445049999224,256.87445049999224,256.87445049999224,256.8812975000037,257.87448090000544,257.87448090000544,258.1534085000021,v,1,0.275565199990524,None,,,,,066430,001,2025-10-05_23h21.42.028,Motor Learning,2024.2.4,145.83275607551627,2025-10-05 23h21.52.395922 +0530,
50,c,106,2,26,c,1,0.25699949999398086,None,26,2,106,2,,,,,258.15908820000186,,258.15372899999784,258.15908820000186,259.1450118999928,259.1450118999928,259.1450118999928,259.1450118999928,259.1521001999936,260.14484880000236,260.14484880000236,260.40400110000337,c,1,0.25699949999398086,None,,,,,066430,001,2025-10-05_23h21.42.028,Motor Learning,2024.2.4,145.83275607551627,2025-10-05 23h21.52.395922 +0530,
-150,z,107,3,26,z,1,0.3226286999997683,None,26,3,107,3,,,,,260.4087750000035,,260.4044219000061,260.4087750000035,261.3947679999983,261.3947679999983,261.3947679999983,261.3947679999983,261.4016346999997,262.39455779999844,262.39455779999844,262.72270139999455,z,1,0.3226286999997683,None,,,,,066430,001,2025-10-05_23h21.42.028,Motor Learning,2024.2.4,145.83275607551627,2025-10-05 23h21.52.395922 +0530,
-50,x,108,0,27,x,1,0.2872466999979224,None,27,0,108,0,,,,,262.727830200005,,262.72306930000195,262.727830200005,263.7137384999951,263.7137384999951,263.7137384999951,263.7137384999951,263.72080759999517,264.71374690000084,264.71374690000084,265.00704500000575,x,1,0.2872466999979224,None,,,,,066430,001,2025-10-05_23h21.42.028,Motor Learning,2024.2.4,145.83275607551627,2025-10-05 23h21.52.395922 +0530,
150,v,109,1,27,v,1,0.42505189999064896,None,27,1,109,1,,,,,265.01220789999934,,265.0075075999921,265.01220789999934,265.99821540000266,265.99821540000266,265.99821540000266,265.99821540000266,266.0052285999991,266.9980809999979,266.9980809999979,267.4298592999985,v,1,0.42505189999064896,None,,,,,066430,001,2025-10-05_23h21.42.028,Motor Learning,2024.2.4,145.83275607551627,2025-10-05 23h21.52.395922 +0530,
50,c,110,2,27,c,1,0.2788678000069922,None,27,2,110,2,,,,,267.4354089999979,,267.43020519999845,267.4354089999979,268.42187649999687,268.42187649999687,268.42187649999687,268.42187649999687,268.42858150000393,269.4213782000006,269.4213782000006,269.7076209999941,c,1,0.2788678000069922,None,,,,,066430,001,2025-10-05_23h21.42.028,Motor Learning,2024.2.4,145.83275607551627,2025-10-05 23h21.52.395922 +0530,
-150,z,111,3,27,z,1,0.256377000012435,None,27,3,111,3,,,,,269.7129915999976,,269.707979800005,269.7129915999976,270.6988049999927,270.6988049999927,270.6988049999927,270.6988049999927,270.70595519999915,271.6986971000006,271.6986971000006,271.9575118999928,z,1,0.256377000012435,None,,,,,066430,001,2025-10-05_23h21.42.028,Motor Learning,2024.2.4,145.83275607551627,2025-10-05 23h21.52.395922 +0530,
-50,x,112,0,28,x,1,0.25473060000513215,None,28,0,112,0,,,,,271.96234129999357,,271.9580016999971,271.96234129999357,272.9486187000002,272.9486187000002,272.9486187000002,272.9486187000002,272.95542959999875,273.94838990000426,273.94838990000426,274.2067501999991,x,1,0.25473060000513215,None,,,,,066430,001,2025-10-05_23h21.42.028,Motor Learning,2024.2.4,145.83275607551627,2025-10-05 23h21.52.395922 +0530,
150,v,113,1,28,v,1,0.2790318999905139,None,28,1,113,1,,,,,274.2121923999948,,274.2071428000054,274.2121923999948,275.19825649999257,275.19825649999257,275.19825649999257,275.19825649999257,275.2052827000007,276.19806169999356,276.19806169999356,276.4841793999949,v,1,0.2790318999905139,None,,,,,066430,001,2025-10-05_23h21.42.028,Motor Learning,2024.2.4,145.83275607551627,2025-10-05 23h21.52.395922 +0530,
50,c,114,2,28,c,1,0.5081419000052847,None,28,2,114,2,,,,,276.4896446000057,,276.4845844999945,276.4896446000057,277.47555580000335,277.47555580000335,277.47555580000335,277.47555580000335,277.48266310000326,278.47551039999234,278.47551039999234,278.9903745000047,c,1,0.5081419000052847,None,,,,,066430,001,2025-10-05_23h21.42.028,Motor Learning,2024.2.4,145.83275607551627,2025-10-05 23h21.52.395922 +0530,
-150,z,115,3,28,z,1,0.7452933000022313,None,28,3,115,3,,,,,278.99616490000335,,278.99067850000574,278.99616490000335,279.98244720000366,279.98244720000366,279.98244720000366,279.98244720000366,279.9891905999975,280.98185840000224,280.98185840000224,281.73371529999713,z,1,0.7452933000022313,None,,,,,066430,001,2025-10-05_23h21.42.028,Motor Learning,2024.2.4,145.83275607551627,2025-10-05 23h21.52.395922 +0530,
-50,x,116,0,29,x,1,0.33504020000691526,None,29,0,116,0,,,,,281.7391241000005,,281.73414250000496,281.7391241000005,282.7248550999939,282.7248550999939,282.7248550999939,282.7248550999939,282.7318537999963,283.7247490000009,283.7247490000009,284.06636230000004,x,1,0.33504020000691526,None,,,,,066430,001,2025-10-05_23h21.42.028,Motor Learning,2024.2.4,145.83275607551627,2025-10-05 23h21.52.395922 +0530,
150,v,117,1,29,v,1,0.5630744000081904,None,29,1,117,1,,,,,284.0719938999973,,284.0667692999996,284.0719938999973,285.05781939999724,285.05781939999724,285.05781939999724,285.05781939999724,285.0649240000057,286.057787800004,286.057787800004,286.62839800000074,v,1,0.5630744000081904,None,,,,,066430,001,2025-10-05_23h21.42.028,Motor Learning,2024.2.4,145.83275607551627,2025-10-05 23h21.52.395922 +0530,
50,c,118,2,29,c,1,0.9040158999996493,None,29,2,118,2,,,,,286.63411669999186,,286.62873680000484,286.63411669999186,287.61988060000294,287.61988060000294,287.61988060000294,287.61988060000294,287.6268964000046,288.6201260999951,288.6201260999951,289.5305958999961,c,1,0.9040158999996493,None,,,,,066430,001,2025-10-05_23h21.42.028,Motor Learning,2024.2.4,145.83275607551627,2025-10-05 23h21.52.395922 +0530,
-150,z,119,3,29,z,1,0.3468182000069646,None,29,3,119,3,,,,,289.53629770000407,,289.530969200001,289.53629770000407,290.5224231000029,290.5224231000029,290.5224231000029,290.5224231000029,290.5294157000026,291.5222397000034,291.5222397000034,291.8716521000024,z,1,0.3468182000069646,None,,,,,066430,001,2025-10-05_23h21.42.028,Motor Learning,2024.2.4,145.83275607551627,2025-10-05 23h21.52.395922 +0530,
-50,x,120,0,30,x,1,0.26378000000840984,None,30,0,120,0,,,,,291.87643269999535,,291.8720736999967,291.87643269999535,292.86242889999994,292.86242889999994,292.86242889999994,292.86242889999994,292.8693842999928,293.8623418999923,293.8623418999923,294.1277587999939,x,1,0.26378000000840984,None,,,,,066430,001,2025-10-05_23h21.42.028,Motor Learning,2024.2.4,145.83275607551627,2025-10-05 23h21.52.395922 +0530,
150,v,121,1,30,v,1,0.34152970000286587,None,30,1,121,1,,,,,294.13299969999935,,294.12812320000376,294.13299969999935,295.11901860000216,295.11901860000216,295.11901860000216,295.11901860000216,295.12601140000334,296.1188467000029,296.1188467000029,296.4673834999994,v,1,0.34152970000286587,None,,,,,066430,001,2025-10-05_23h21.42.028,Motor Learning,2024.2.4,145.83275607551627,2025-10-05 23h21.52.395922 +0530,
50,c,122,2,30,c,1,0.2729871000046842,None,30,2,122,2,,,,,296.4729953999922,,296.46777249999286,296.4729953999922,297.45884079999814,297.45884079999814,297.45884079999814,297.45884079999814,297.46593649999704,298.45865289999347,298.45865289999347,298.7382746999938,c,1,0.2729871000046842,None,,,,,066430,001,2025-10-05_23h21.42.028,Motor Learning,2024.2.4,145.83275607551627,2025-10-05 23h21.52.395922 +0530,
-150,z,123,3,30,z,1,0.346250799993868,None,30,3,123,3,,,,,298.74353059999703,,298.7387654000049,298.74353059999703,299.7294180000026,299.7294180000026,299.7294180000026,299.7294180000026,299.7363148000004,300.7292480000033,300.7292480000033,301.07805290000397,z,1,0.346250799993868,None,,,,,066430,001,2025-10-05_23h21.42.028,Motor Learning,2024.2.4,145.83275607551627,2025-10-05 23h21.52.395922 +0530,
-50,x,124,0,31,x,1,0.26975140000286046,None,31,0,124,0,,,,,301.0833449000056,,301.07846590000554,301.0833449000056,302.06929080000555,302.06929080000555,302.06929080000555,302.06929080000555,302.0763891999959,303.0692240999924,303.0692240999924,303.34210639999947,x,1,0.26975140000286046,None,,,,,066430,001,2025-10-05_23h21.42.028,Motor Learning,2024.2.4,145.83275607551627,2025-10-05 23h21.52.395922 +0530,
150,v,125,1,31,v,1,0.4047375999944052,None,31,1,125,1,,,,,303.3469760000007,,303.34252629999537,303.3469760000007,304.3329153999948,304.3329153999948,304.3329153999948,304.3329153999948,304.33988240000326,305.33285190000606,305.33285190000606,305.744194400002,v,1,0.4047375999944052,None,,,,,066430,001,2025-10-05_23h21.42.028,Motor Learning,2024.2.4,145.83275607551627,2025-10-05 23h21.52.395922 +0530,
50,c,126,2,31,c,1,0.3557291000033729,None,31,2,126,2,,,,,305.74938660000043,,305.7446113000042,305.74938660000043,306.7354622999992,306.7354622999992,306.7354622999992,306.7354622999992,306.7423240000062,307.7353160999919,307.7353160999919,308.0978923999937,c,1,0.3557291000033729,None,,,,,066430,001,2025-10-05_23h21.42.028,Motor Learning,2024.2.4,145.83275607551627,2025-10-05 23h21.52.395922 +0530,
-150,z,127,3,31,z,1,0.6841094999981578,None,31,3,127,3,,,,,308.1031493000046,,308.09827329999825,308.1031493000046,309.0892668000015,309.0892668000015,309.0892668000015,309.0892668000015,309.0962450999941,310.08891730000323,310.08891730000323,310.7781107000046,z,1,0.6841094999981578,None,,,,,066430,001,2025-10-05_23h21.42.028,Motor Learning,2024.2.4,145.83275607551627,2025-10-05 23h21.52.395922 +0530,
-50,x,128,0,32,x,1,0.39553689998865593,None,32,0,128,0,,,,,310.7832793999987,,310.77849589999823,310.7832793999987,311.7692806999985,311.7692806999985,311.7692806999985,311.7692806999985,311.7762872000021,312.7692403999972,312.7692403999972,313.16671019999194,x,1,0.39553689998865593,None,,,,,066430,001,2025-10-05_23h21.42.028,Motor Learning,2024.2.4,145.83275607551627,2025-10-05 23h21.52.395922 +0530,
150,v,129,1,32,v,1,0.4339073000010103,None,32,1,129,1,,,,,313.1719446999923,,313.1670751000056,313.1719446999923,314.1578662999964,314.1578662999964,314.1578662999964,314.1578662999964,314.1648134999996,315.157729700004,315.157729700004,315.5957303000032,v,1,0.4339073000010103,None,,,,,066430,001,2025-10-05_23h21.42.028,Motor Learning,2024.2.4,145.83275607551627,2025-10-05 23h21.52.395922 +0530,
50,c,130,2,32,c,1,0.3235278000065591,None,32,2,130,2,,,,,315.60187539999606,,315.5959445000044,315.60187539999606,316.58813609999197,316.58813609999197,316.58813609999197,316.58813609999197,316.5948952000035,317.587947299995,317.587947299995,317.9159493000043,c,1,0.3235278000065591,None,,,,,066430,001,2025-10-05_23h21.42.028,Motor Learning,2024.2.4,145.83275607551627,2025-10-05 23h21.52.395922 +0530,
-150,z,131,3,32,z,1,0.3208135000022594,None,32,3,131,3,,,,,317.92118449999543,,317.91631990000315,317.92118449999543,318.9072379999998,318.9072379999998,318.9072379999998,318.9072379999998,318.91417229999206,319.90698669999256,319.90698669999256,320.23515740000585,z,1,0.3208135000022594,None,,,,,066430,001,2025-10-05_23h21.42.028,Motor Learning,2024.2.4,145.83275607551627,2025-10-05 23h21.52.395922 +0530,
-50,x,132,0,33,x,1,0.376121699999203,None,33,0,132,0,,,,,320.24040359999344,,320.23556010000175,320.24040359999344,321.2260743999941,321.2260743999941,321.2260743999941,321.2260743999941,321.23319519999495,322.2262195999938,322.2262195999938,322.60994270000083,x,1,0.376121699999203,None,,,,,066430,001,2025-10-05_23h21.42.028,Motor Learning,2024.2.4,145.83275607551627,2025-10-05 23h21.52.395922 +0530,
150,v,133,1,33,v,1,0.31989440000324976,None,33,1,133,1,,,,,322.61498670000583,,322.6103485000058,322.61498670000583,323.6009228000039,323.6009228000039,323.6009228000039,323.6009228000039,323.6078753000038,324.60069370000565,324.60069370000565,324.9222058000014,v,1,0.31989440000324976,None,,,,,066430,001,2025-10-05_23h21.42.028,Motor Learning,2024.2.4,145.83275607551627,2025-10-05 23h21.52.395922 +0530,
50,c,134,2,33,c,1,0.3812986999982968,None,33,2,134,2,,,,,324.92687280000246,,324.9226345999923,324.92687280000246,325.91317240000353,325.91317240000353,325.91317240000353,325.91317240000353,325.92004529999394,326.91303369999514,326.91303369999514,327.2973326999927,c,1,0.3812986999982968,None,,,,,066430,001,2025-10-05_23h21.42.028,Motor Learning,2024.2.4,145.83275607551627,2025-10-05 23h21.52.395922 +0530,
-150,z,135,3,33,z,1,0.5156510000088019,None,33,3,135,3,,,,,327.3018183999957,,327.2977765999967,327.3018183999957,328.2877378999983,328.2877378999983,328.2877378999983,328.2877378999983,328.2946071000042,329.28750389999186,329.28750389999186,329.80948799999896,z,1,0.5156510000088019,None,,,,,066430,001,2025-10-05_23h21.42.028,Motor Learning,2024.2.4,145.83275607551627,2025-10-05 23h21.52.395922 +0530,
-50,x,136,0,34,x,1,0.517454100001487,None,34,0,136,0,,,,,329.8153958000039,,329.80977890000213,329.8153958000039,330.80130310000095,330.80130310000095,330.80130310000095,330.80130310000095,330.80812240000523,331.80114219999814,331.80114219999814,332.32331360000535,x,1,0.517454100001487,None,,,,,066430,001,2025-10-05_23h21.42.028,Motor Learning,2024.2.4,145.83275607551627,2025-10-05 23h21.52.395922 +0530,
150,v,137,1,34,v,1,0.5220348000002559,None,34,1,137,1,,,,,332.32878809999966,,332.32372109999415,332.32878809999966,333.3147586999985,333.3147586999985,333.3147586999985,333.3147586999985,333.32181670000136,334.3146087000059,334.3146087000059,334.8436120999977,v,1,0.5220348000002559,None,,,,,066430,001,2025-10-05_23h21.42.028,Motor Learning,2024.2.4,145.83275607551627,2025-10-05 23h21.52.395922 +0530,
50,c,138,2,34,c,1,0.4759163999988232,None,34,2,138,2,,,,,334.8493215000053,,334.84390829999757,334.8493215000053,335.83515119999356,335.83515119999356,335.83515119999356,335.83515119999356,335.8422739999951,336.83524279999256,336.83524279999256,337.31560430000536,c,1,0.4759163999988232,None,,,,,066430,001,2025-10-05_23h21.42.028,Motor Learning,2024.2.4,145.83275607551627,2025-10-05 23h21.52.395922 +0530,
-150,z,139,3,34,z,1,0.5248090000095544,None,34,3,139,3,,,,,337.3210889000038,,337.3160194999946,337.3210889000038,338.30708470000536,338.30708470000536,338.30708470000536,338.30708470000536,338.314088900006,339.30697130000044,339.30697130000044,339.8360995999974,z,1,0.5248090000095544,None,,,,,066430,001,2025-10-05_23h21.42.028,Motor Learning,2024.2.4,145.83275607551627,2025-10-05 23h21.52.395922 +0530,
-50,x,140,0,35,x,1,0.36688309999590274,None,35,0,140,0,,,,,339.84168019999925,,339.83656870000414,339.84168019999925,340.82760540000163,340.82760540000163,340.82760540000163,340.82760540000163,340.83447079999314,341.82750549999764,341.82750549999764,342.19717440000386,x,1,0.36688309999590274,None,,,,,066430,001,2025-10-05_23h21.42.028,Motor Learning,2024.2.4,145.83275607551627,2025-10-05 23h21.52.395922 +0530,
150,v,141,1,35,v,1,0.3438882000045851,None,35,1,141,1,,,,,342.202288600005,,342.19762130000163,342.202288600005,343.18841459999385,343.18841459999385,343.18841459999385,343.18841459999385,343.19534989999374,344.1882212999917,344.1882212999917,344.53692250000313,v,1,0.3438882000045851,None,,,,,066430,001,2025-10-05_23h21.42.028,Motor Learning,2024.2.4,145.83275607551627,2025-10-05 23h21.52.395922 +0530,
50,c,142,2,35,c,1,0.28074170000036247,None,35,2,142,2,,,,,344.5422297000041,,344.53737429999455,344.5422297000041,345.52829109999584,345.52829109999584,345.52829109999584,345.52829109999584,345.53521210000326,346.5282121999917,346.5282121999917,346.81462970000575,c,1,0.28074170000036247,None,,,,,066430,001,2025-10-05_23h21.42.028,Motor Learning,2024.2.4,145.83275607551627,2025-10-05 23h21.52.395922 +0530,
-150,z,143,3,35,z,1,0.3258663000015076,None,35,3,143,3,,,,,346.8201643999928,,346.81491899999673,346.8201643999928,347.8057798999944,347.8057798999944,347.8057798999944,347.8057798999944,347.81287530000554,348.80570250000164,348.80570250000164,349.13279239999247,z,1,0.3258663000015076,None,,,,,066430,001,2025-10-05_23h21.42.028,Motor Learning,2024.2.4,145.83275607551627,2025-10-05 23h21.52.395922 +0530,
-50,x,144,0,36,x,1,0.43403059999400284,None,36,0,144,0,,,,,349.1385811999935,,349.13298339999164,349.1385811999935,350.1248009999981,350.1248009999981,350.1248009999981,350.1248009999981,350.13186320000386,351.12484039999254,351.12484039999254,351.56391680000525,x,1,0.43403059999400284,None,,,,,066430,001,2025-10-05_23h21.42.028,Motor Learning,2024.2.4,145.83275607551627,2025-10-05 23h21.52.395922 +0530,
150,v,145,1,36,v,1,0.27264439999999013,None,36,1,145,1,,,,,351.56902500000433,,351.56433670000115,351.56902500000433,352.55494099999487,352.55494099999487,352.55494099999487,352.55494099999487,352.5619619999925,353.5548654000013,353.5548654000013,353.83455200000026,v,1,0.27264439999999013,None,,,,,066430,001,2025-10-05_23h21.42.028,Motor Learning,2024.2.4,145.83275607551627,2025-10-05 23h21.52.395922 +0530,
50,c,146,2,36,c,1,0.35162400000263005,None,36,2,146,2,,,,,353.8395911999978,,353.83497969999735,353.8395911999978,354.8254805000033,354.8254805000033,354.8254805000033,354.8254805000033,354.83252090000315,355.82543939999596,355.82543939999596,356.1811172000016,c,1,0.35162400000263005,None,,,,,066430,001,2025-10-05_23h21.42.028,Motor Learning,2024.2.4,145.83275607551627,2025-10-05 23h21.52.395922 +0530,
-150,z,147,3,36,z,1,0.4483027999958722,None,36,3,147,3,,,,,356.18659769999795,,356.18149970000377,356.18659769999795,357.17329389999213,357.17329389999213,357.17329389999213,357.17329389999213,357.1793719999987,358.17213510000147,358.17213510000147,358.62471629999345,z,1,0.4483027999958722,None,,,,,066430,001,2025-10-05_23h21.42.028,Motor Learning,2024.2.4,145.83275607551627,2025-10-05 23h21.52.395922 +0530,
-50,x,148,0,37,x,1,0.5308527000015602,None,37,0,148,0,,,,,358.63042570000107,,358.62506069999654,358.63042570000107,359.616434800002,359.616434800002,359.616434800002,359.616434800002,359.62358949999907,360.6163690999965,360.6163690999965,361.15281129999494,x,1,0.5308527000015602,None,,,,,066430,001,2025-10-05_23h21.42.028,Motor Learning,2024.2.4,145.83275607551627,2025-10-05 23h21.52.395922 +0530,
150,v,149,1,37,v,1,0.4040065000008326,None,37,1,149,1,,,,,361.15799710000283,,361.15322550000565,361.15799710000283,362.1439468000026,362.1439468000026,362.1439468000026,362.1439468000026,362.1508705000015,363.1438177999953,363.1438177999953,363.5550286999933,v,1,0.4040065000008326,None,,,,,066430,001,2025-10-05_23h21.42.028,Motor Learning,2024.2.4,145.83275607551627,2025-10-05 23h21.52.395922 +0530,
50,c,150,2,37,c,1,0.4052044999989448,None,37,2,150,2,,,,,363.5602766999946,,363.55547049999586,363.5602766999946,364.54627760000585,364.54627760000585,364.54627760000585,364.54627760000585,364.55333929999324,365.5463477000012,365.5463477000012,365.9573049000028,c,1,0.4052044999989448,None,,,,,066430,001,2025-10-05_23h21.42.028,Motor Learning,2024.2.4,145.83275607551627,2025-10-05 23h21.52.395922 +0530,
-150,z,151,3,37,z,1,0.4344524000043748,None,37,3,151,3,,,,,365.9629442000005,,365.95772069999657,365.9629442000005,366.9487320000044,366.9487320000044,366.9487320000044,366.9487320000044,366.9557824999938,367.9486340000003,367.9486340000003,368.38780369999586,z,1,0.4344524000043748,None,,,,,066430,001,2025-10-05_23h21.42.028,Motor Learning,2024.2.4,145.83275607551627,2025-10-05 23h21.52.395922 +0530,
-50,x,152,0,38,x,1,0.4411300000065239,None,38,0,152,0,,,,,368.3931760999985,,368.3881212999986,368.3931760999985,369.3788368999958,369.3788368999958,369.3788368999958,369.3788368999958,369.38606970000546,370.3789480999985,370.3789480999985,370.8245959000051,x,1,0.4411300000065239,None,,,,,066430,001,2025-10-05_23h21.42.028,Motor Learning,2024.2.4,145.83275607551627,2025-10-05 23h21.52.395922 +0530,
150,v,153,1,38,v,1,0.4963997000013478,None,38,1,153,1,,,,,370.83004820000497,,370.82501849999244,370.83004820000497,371.8162500000035,371.8162500000035,371.8162500000035,371.8162500000035,371.8231844999973,372.8161048000038,372.8161048000038,373.3177524000057,v,1,0.4963997000013478,None,,,,,066430,001,2025-10-05_23h21.42.028,Motor Learning,2024.2.4,145.83275607551627,2025-10-05 23h21.52.395922 +0530,
50,c,154,2,38,c,1,0.6703833999927156,None,38,2,154,2,,,,,373.3229997000017,,373.3181704000017,373.3229997000017,374.30877319999854,374.30877319999854,374.30877319999854,374.30877319999854,374.3158565000049,375.3086433999997,375.3086433999997,375.98373690000153,c,1,0.6703833999927156,None,,,,,066430,001,2025-10-05_23h21.42.028,Motor Learning,2024.2.4,145.83275607551627,2025-10-05 23h21.52.395922 +0530,
-150,z,155,3,38,z,1,0.31227590001071803,None,38,3,155,3,,,,,375.98903739999514,,375.9841185999976,375.98903739999514,376.9751149999938,376.9751149999938,376.9751149999938,376.9751149999938,376.98213970000506,377.9750400000048,377.9750400000048,378.2894222000032,z,1,0.31227590001071803,None,,,,,066430,001,2025-10-05_23h21.42.028,Motor Learning,2024.2.4,145.83275607551627,2025-10-05 23h21.52.395922 +0530,
-50,x,156,0,39,x,1,0.3715492000046652,None,39,0,156,0,,,,,378.2944506000058,,378.28983330000483,378.2944506000058,379.28048509999644,379.28048509999644,379.28048509999644,379.28048509999644,379.28745449999406,380.28024079999886,380.28024079999886,380.65661120000004,x,1,0.3715492000046652,None,,,,,066430,001,2025-10-05_23h21.42.028,Motor Learning,2024.2.4,145.83275607551627,2025-10-05 23h21.52.395922 +0530,
150,v,157,1,39,v,1,0.3321300999959931,None,39,1,157,1,,,,,380.66205179999815,,380.65700659999857,380.66205179999815,381.64805190000334,381.64805190000334,381.64805190000334,381.64805190000334,381.6550108999945,382.6478843999939,382.6478843999939,382.98293840000406,v,1,0.3321300999959931,None,,,,,066430,001,2025-10-05_23h21.42.028,Motor Learning,2024.2.4,145.83275607551627,2025-10-05 23h21.52.395922 +0530,
50,c,158,2,39,c,1,0.3068112999899313,None,39,2,158,2,,,,,382.9880873999937,,382.9833922999969,382.9880873999937,383.97407779999776,383.97407779999776,383.97407779999776,383.97407779999776,383.9809903999994,384.974074800004,384.974074800004,385.28791739999724,c,1,0.3068112999899313,None,,,,,066430,001,2025-10-05_23h21.42.028,Motor Learning,2024.2.4,145.83275607551627,2025-10-05 23h21.52.395922 +0530,
-150,z,159,3,39,z,1,0.4980939999950351,None,39,3,159,3,,,,,385.29332379999687,,385.28829840000253,385.29332379999687,386.27936279999267,386.27936279999267,386.27936279999267,386.27936279999267,386.28628250000475,387.2802808999986,387.2802808999986,387.7808612999943,z,1,0.4980939999950351,None,,,,,066430,001,2025-10-05_23h21.42.028,Motor Learning,2024.2.4,145.83275607551627,2025-10-05 23h21.52.395922 +0530,
-50,x,160,0,40,x,1,0.5764849999977741,None,40,0,160,0,,,,,387.78607309999643,,387.78124630000093,387.78607309999643,388.7721191000019,388.7721191000019,388.7721191000019,388.7721191000019,388.7789474000019,389.7718418000004,389.7718418000004,390.3501211999974,x,1,0.5764849999977741,None,,,,,066430,001,2025-10-05_23h21.42.028,Motor Learning,2024.2.4,145.83275607551627,2025-10-05 23h21.52.395922 +0530,
150,v,161,1,40,v,1,0.41370269999606535,None,40,1,161,1,,,,,390.3549844999943,,390.3504835000058,390.3549844999943,391.3410775999946,391.3410775999946,391.3410775999946,391.3410775999946,391.34813430000213,392.340901699994,392.340901699994,392.75917350000236,v,1,0.41370269999606535,None,,,,,066430,001,2025-10-05_23h21.42.028,Motor Learning,2024.2.4,145.83275607551627,2025-10-05 23h21.52.395922 +0530,
50,c,162,2,40,c,1,0.3374887999962084,None,40,2,162,2,,,,,392.76443329999165,,392.7596111000021,392.76443329999165,393.75061819999246,393.75061819999246,393.75061819999246,393.75061819999246,393.7573493999953,394.7503804000007,394.7503804000007,395.0921984000015,c,1,0.3374887999962084,None,,,,,066430,001,2025-10-05_23h21.42.028,Motor Learning,2024.2.4,145.83275607551627,2025-10-05 23h21.52.395922 +0530,
-150,z,163,3,40,z,1,0.6408459999947809,None,40,3,163,3,,,,,395.09741079999367,,395.09332499999437,395.09741079999367,396.0835708999948,396.0835708999948,396.0835708999948,396.0835708999948,396.0905078999931,397.0833105999918,397.0833105999918,397.7306966000033,z,1,0.6408459999947809,None,,,,,066430,001,2025-10-05_23h21.42.028,Motor Learning,2024.2.4,145.83275607551627,2025-10-05 23h21.52.395922 +0530,
-50,x,164,0,41,x,1,0.37236829999892507,None,41,0,164,0,,,,,397.7360980999947,,397.73115629999666,397.7360980999947,398.72195799999463,398.72195799999463,398.72195799999463,398.72195799999463,398.72879439999815,399.7219463999936,399.7219463999936,400.09866150000016,x,1,0.37236829999892507,None,,,,,066430,001,2025-10-05_23h21.42.028,Motor Learning,2024.2.4,145.83275607551627,2025-10-05 23h21.52.395922 +0530,
150,v,165,1,41,v,1,0.43433780000486877,None,41,1,165,1,,,,,400.10367129999213,,400.09906589999446,400.10367129999213,401.08986809999624,401.08986809999624,401.08986809999624,401.08986809999624,401.09670569999435,402.0896369999973,402.0896369999973,402.52849110000534,v,1,0.43433780000486877,None,,,,,066430,001,2025-10-05_23h21.42.028,Motor Learning,2024.2.4,145.83275607551627,2025-10-05 23h21.52.395922 +0530,
50,c,166,2,41,c,1,0.1705214999965392,None,41,2,166,2,,,,,402.5339798000059,,402.5289128000004,402.5339798000059,403.5200657999958,403.5200657999958,403.5200657999958,403.5200657999958,403.5268383999937,404.5198594999965,404.5198594999965,404.6952350999927,c,1,0.1705214999965392,None,,,,,066430,001,2025-10-05_23h21.42.028,Motor Learning,2024.2.4,145.83275607551627,2025-10-05 23h21.52.395922 +0530,
-150,z,167,3,41,z,1,0.37169010000070557,None,41,3,167,3,,,,,404.7003706999967,,404.6956724000047,404.7003706999967,405.6860694999923,405.6860694999923,405.6860694999923,405.6860694999923,405.6931205000001,406.6861984999996,406.6861984999996,407.0619067999942,z,1,0.37169010000070557,None,,,,,066430,001,2025-10-05_23h21.42.028,Motor Learning,2024.2.4,145.83275607551627,2025-10-05 23h21.52.395922 +0530,
-50,x,168,0,42,x,1,0.31718899999395944,None,42,0,168,0,,,,,407.0678590000025,,407.062253600001,407.0678590000025,408.0541571999929,408.0541571999929,408.0541571999929,408.0541571999929,408.0609751000011,409.053966499996,409.053966499996,409.37480209999194,x,1,0.31718899999395944,None,,,,,066430,001,2025-10-05_23h21.42.028,Motor Learning,2024.2.4,145.83275607551627,2025-10-05 23h21.52.395922 +0530,
150,v,169,1,42,v,1,0.4902748000022257,None,42,1,169,1,,,,,409.38017469999613,,409.3751728000061,409.38017469999613,410.36616940000386,410.36616940000386,410.36616940000386,410.36616940000386,410.3731400999968,411.3661295000056,411.3661295000056,411.8606077000004,v,1,0.4902748000022257,None,,,,,066430,001,2025-10-05_23h21.42.028,Motor Learning,2024.2.4,145.83275607551627,2025-10-05 23h21.52.395922 +0530,
50,c,170,2,42,c,1,0.6945941000012681,None,42,2,170,2,,,,,411.865904899998,,411.8610312999954,411.865904899998,412.85201919999963,412.85201919999963,412.85201919999963,412.85201919999963,412.8589101999969,413.8517570999975,413.8517570999975,414.54788389999885,c,1,0.6945941000012681,None,,,,,066430,001,2025-10-05_23h21.42.028,Motor Learning,2024.2.4,145.83275607551627,2025-10-05 23h21.52.395922 +0530,
-150,z,171,3,42,z,1,0.7657665000006091,None,42,3,171,3,,,,,414.5530909999943,,414.5482878000039,414.5530909999943,415.539174000005,415.539174000005,415.539174000005,415.539174000005,415.54594799999904,416.5389429000061,416.5389429000061,417.31150110000453,z,1,0.7657665000006091,None,,,,,066430,001,2025-10-05_23h21.42.028,Motor Learning,2024.2.4,145.83275607551627,2025-10-05 23h21.52.395922 +0530,
-50,x,172,0,43,x,1,0.9207552000007126,None,43,0,172,0,,,,,417.3165644999972,,417.31192459999875,417.3165644999972,418.30262180000136,418.30262180000136,418.30262180000136,418.30262180000136,418.30952339999203,419.3023833000043,419.3023833000043,420.22757190000266,x,1,0.9207552000007126,None,,,,,066430,001,2025-10-05_23h21.42.028,Motor Learning,2024.2.4,145.83275607551627,2025-10-05 23h21.52.395922 +0530,
150,v,173,1,43,v,1,0.621260700005223,None,43,1,173,1,,,,,420.232786099994,,420.22806090000086,420.232786099994,421.2188232000044,421.2188232000044,421.2188232000044,421.2188232000044,421.22569510000176,422.21869069999957,422.21869069999957,422.8453115000011,v,1,0.621260700005223,None,,,,,066430,001,2025-10-05_23h21.42.028,Motor Learning,2024.2.4,145.83275607551627,2025-10-05 23h21.52.395922 +0530,
50,c,174,2,43,c,1,0.6333322999998927,None,43,2,174,2,,,,,422.8504491000058,,422.845653700002,422.8504491000058,423.83644800000184,423.83644800000184,423.83644800000184,423.83644800000184,423.8434508999926,424.8363854000054,424.8363854000054,425.47617799999716,c,1,0.6333322999998927,None,,,,,066430,001,2025-10-05_23h21.42.028,Motor Learning,2024.2.4,145.83275607551627,2025-10-05 23h21.52.395922 +0530,
-150,z,175,3,43,z,1,4.618544999990263,None,43,3,175,3,,,,,425.48195109999506,,425.47705279999354,425.48195109999506,426.4679376999993,426.4679376999993,426.4679376999993,426.4679376999993,426.4747611999919,427.4678470999934,427.4678470999934,432.0940383999987,z,1,4.618544999990263,None,,,,,066430,001,2025-10-05_23h21.42.028,Motor Learning,2024.2.4,145.83275607551627,2025-10-05 23h21.52.395922 +0530,
-50,x,176,0,44,x,1,0.5797725000011269,None,44,0,176,0,,,,,432.0990696999943,,432.09442009999475,432.0990696999943,433.08502790000057,433.08502790000057,433.08502790000057,433.08502790000057,433.0920812999975,434.0849976000027,434.0849976000027,434.6699429,x,1,0.5797725000011269,None,,,,,066430,001,2025-10-05_23h21.42.028,Motor Learning,2024.2.4,145.83275607551627,2025-10-05 23h21.52.395922 +0530,
150,v,177,1,44,v,1,0.345115000003716,None,44,1,177,1,,,,,434.6750878000021,,434.67030270000396,434.6750878000021,435.6611555999989,435.6611555999989,435.6611555999989,435.6611555999989,435.66813099999854,436.66098030000285,436.66098030000285,437.00980569999956,v,1,0.345115000003716,None,,,,,066430,001,2025-10-05_23h21.42.028,Motor Learning,2024.2.4,145.83275607551627,2025-10-05 23h21.52.395922 +0530,
50,c,178,2,44,c,1,0.30420719999528956,None,44,2,178,2,,,,,437.01510619999317,,437.01019069999165,437.01510619999317,438.0010404000059,438.0010404000059,438.0010404000059,438.0010404000059,438.00800990000425,439.00085460000264,439.00085460000264,439.30843900000036,c,1,0.30420719999528956,None,,,,,066430,001,2025-10-05_23h21.42.028,Motor Learning,2024.2.4,145.83275607551627,2025-10-05 23h21.52.395922 +0530,
-150,z,179,3,44,z,1,0.3925608999998076,None,44,3,179,3,,,,,439.31336539999756,,439.3088221999933,439.31336539999756,440.2992879999947,440.2992879999947,440.2992879999947,440.2992879999947,440.30620289999933,441.29931139999826,441.29931139999826,441.69617850000213,z,1,0.3925608999998076,None,,,,,066430,001,2025-10-05_23h21.42.028,Motor Learning,2024.2.4,145.83275607551627,2025-10-05 23h21.52.395922 +0530,
-50,x,180,0,45,x,1,1.0713364999974146,None,45,0,180,0,,,,,441.70178560000204,,441.6964822000009,441.70178560000204,442.68779019999783,442.68779019999783,442.68779019999783,442.68779019999783,442.6946864999918,443.6874497999961,443.6874497999961,444.7653844000015,x,1,1.0713364999974146,None,,,,,066430,001,2025-10-05_23h21.42.028,Motor Learning,2024.2.4,145.83275607551627,2025-10-05 23h21.52.395922 +0530,
150,v,181,1,45,v,1,0.7148536000022432,None,45,1,181,1,,,,,444.77095109999937,,444.7657743000018,444.77095109999937,445.75678899999184,445.75678899999184,445.75678899999184,445.75678899999184,445.7638514999999,446.75655419999384,446.75655419999384,447.473690800005,v,1,0.7148536000022432,None,,,,,066430,001,2025-10-05_23h21.42.028,Motor Learning,2024.2.4,145.83275607551627,2025-10-05 23h21.52.395922 +0530,
50,c,182,2,45,c,1,0.9412191000010353,None,45,2,182,2,,,,,447.4785947000055,,447.4740965999954,447.4785947000055,448.46471790000214,448.46471790000214,448.46471790000214,448.46471790000214,448.471718899993,449.4645684999996,449.4645684999996,450.4102544000052,c,1,0.9412191000010353,None,,,,,066430,001,2025-10-05_23h21.42.028,Motor Learning,2024.2.4,145.83275607551627,2025-10-05 23h21.52.395922 +0530,
-150,z,183,3,45,z,1,0.5497583999967901,None,45,3,183,3,,,,,450.41590619999624,,450.410793499992,450.41590619999624,451.40171530000225,451.40171530000225,451.40171530000225,451.40171530000225,451.40890979999676,452.4018273999973,452.4018273999973,452.9584696999955,z,1,0.5497583999967901,None,,,,,066430,001,2025-10-05_23h21.42.028,Motor Learning,2024.2.4,145.83275607551627,2025-10-05 23h21.52.395922 +0530,
-50,x,184,0,46,x,1,0.5082005999865942,None,46,0,184,0,,,,,452.9643623000011,,452.9588708999945,452.9643623000011,453.9499322000047,453.9499322000047,453.9499322000047,453.9499322000047,453.9569315999979,454.95004110000446,454.95004110000446,455.465151700002,x,1,0.5082005999865942,None,,,,,066430,001,2025-10-05_23h21.42.028,Motor Learning,2024.2.4,145.83275607551627,2025-10-05 23h21.52.395922 +0530,
150,v,185,1,46,v,1,0.27302969999436755,None,46,1,185,1,,,,,455.4707084999973,,455.46555579999404,455.4707084999973,456.4566640999983,456.4566640999983,456.4566640999983,456.4566640999983,456.46362399999634,457.4565658999927,457.4565658999927,457.7358131999936,v,1,0.27302969999436755,None,,,,,066430,001,2025-10-05_23h21.42.028,Motor Learning,2024.2.4,145.83275607551627,2025-10-05 23h21.52.395922 +0530,
50,c,186,2,46,c,1,0.2652467000007164,None,46,2,186,2,,,,,457.7412242999999,,457.73619310000504,457.7412242999999,458.72692069999175,458.72692069999175,458.72692069999175,458.72692069999175,458.73421450000023,459.72696479999286,459.72696479999286,459.9993539999996,c,1,0.2652467000007164,None,,,,,066430,001,2025-10-05_23h21.42.028,Motor Learning,2024.2.4,145.83275607551627,2025-10-05 23h21.52.395922 +0530,
-150,z,187,3,46,z,1,0.2903489000018453,None,46,3,187,3,,,,,460.00482889999694,,459.99975049999193,460.00482889999694,460.99074939999264,460.99074939999264,460.99074939999264,460.99074939999264,460.99771700000565,461.9908002000011,461.9908002000011,462.2840537000011,z,1,0.2903489000018453,None,,,,,066430,001,2025-10-05_23h21.42.028,Motor Learning,2024.2.4,145.83275607551627,2025-10-05 23h21.52.395922 +0530,
-50,x,188,0,47,x,1,0.23759030000655912,None,47,0,188,0,,,,,462.28911810000136,,462.28446429999894,462.28911810000136,463.2752357999998,463.2752357999998,463.2752357999998,463.2752357999998,463.2821908000042,464.2749602999975,464.2749602999975,464.5194377000007,x,1,0.23759030000655912,None,,,,,066430,001,2025-10-05_23h21.42.028,Motor Learning,2024.2.4,145.83275607551627,2025-10-05 23h21.52.395922 +0530,
150,v,189,1,47,v,1,0.2709479999903124,None,47,1,189,1,,,,,464.52494899999874,,464.51984589999483,464.52494899999874,465.5108665000007,465.5108665000007,465.5108665000007,465.5108665000007,465.51786829999764,466.5107016999973,466.5107016999973,466.7835045999964,v,1,0.2709479999903124,None,,,,,066430,001,2025-10-05_23h21.42.028,Motor Learning,2024.2.4,145.83275607551627,2025-10-05 23h21.52.395922 +0530,
50,c,190,2,47,c,1,0.29591220000293106,None,47,2,190,2,,,,,466.78841520000424,,466.7839457999944,466.78841520000424,467.77431429999706,467.77431429999706,467.77431429999706,467.77431429999706,467.78139970000484,468.7742896999989,468.7742896999989,469.0741154999996,c,1,0.29591220000293106,None,,,,,066430,001,2025-10-05_23h21.42.028,Motor Learning,2024.2.4,145.83275607551627,2025-10-05 23h21.52.395922 +0530,
-150,z,191,3,47,z,1,0.3068747999932384,None,47,3,191,3,,,,,469.08028199999535,,469.0744898999983,469.08028199999535,470.06577699999616,470.06577699999616,470.06577699999616,470.06577699999616,470.07276280000224,471.0656097000028,471.0656097000028,471.37967530000606,z,1,0.3068747999932384,None,,,,,066430,001,2025-10-05_23h21.42.028,Motor Learning,2024.2.4,145.83275607551627,2025-10-05 23h21.52.395922 +0530,
-50,x,192,0,48,x,1,0.9185862000013003,None,48,0,192,0,,,,,471.3848328000022,,471.3800693999947,471.3848328000022,472.3709858999937,472.3709858999937,472.3709858999937,472.3709858999937,472.37795340000594,473.37080469999637,473.37080469999637,474.295692300002,x,1,0.9185862000013003,None,,,,,066430,001,2025-10-05_23h21.42.028,Motor Learning,2024.2.4,145.83275607551627,2025-10-05 23h21.52.395922 +0530,
150,v,193,1,48,v,1,0.3847408000001451,None,48,1,193,1,,,,,474.3013609000045,,474.2960865999921,474.3013609000045,475.2871853999968,475.2871853999968,475.2871853999968,475.2871853999968,475.29431110000587,476.2869892000017,476.2869892000017,476.67755779999425,v,1,0.3847408000001451,None,,,,,066430,001,2025-10-05_23h21.42.028,Motor Learning,2024.2.4,145.83275607551627,2025-10-05 23h21.52.395922 +0530,
50,c,194,2,48,c,1,0.28560360000119545,None,48,2,194,2,,,,,476.6828358000057,,476.67796899999666,476.6828358000057,477.6688484000042,477.6688484000042,477.6688484000042,477.6688484000042,477.6758525000041,478.6689813999983,478.6689813999983,478.961787799999,c,1,0.28560360000119545,None,,,,,066430,001,2025-10-05_23h21.42.028,Motor Learning,2024.2.4,145.83275607551627,2025-10-05 23h21.52.395922 +0530,
-150,z,195,3,48,z,1,0.466895099991234,None,48,3,195,3,,,,,478.9674337000033,,478.9621924999956,478.9674337000033,479.95329279999714,479.95329279999714,479.95329279999714,479.95329279999714,479.9602984999947,480.95303639999474,480.95303639999474,481.4267020999978,z,1,0.466895099991234,None,,,,,066430,001,2025-10-05_23h21.42.028,Motor Learning,2024.2.4,145.83275607551627,2025-10-05 23h21.52.395922 +0530,
-50,x,196,0,49,x,1,0.9434153999900445,None,49,0,196,0,,,,,481.43207949999487,,481.42709070000274,481.43207949999487,482.41805659999955,482.41805659999955,482.41805659999955,482.41805659999955,482.4252669999987,483.4181286999956,483.4181286999956,484.3643346000026,x,1,0.9434153999900445,None,,,,,066430,001,2025-10-05_23h21.42.028,Motor Learning,2024.2.4,145.83275607551627,2025-10-05 23h21.52.395922 +0530,
150,v,197,1,49,v,1,0.5845968000066932,None,49,1,197,1,,,,,484.3693606000015,,484.3647762000037,484.3693606000015,485.35529710000264,485.35529710000264,485.35529710000264,485.35529710000264,485.3621492999955,486.35561379999854,486.35561379999854,486.9470638999919,v,1,0.5845968000066932,None,,,,,066430,001,2025-10-05_23h21.42.028,Motor Learning,2024.2.4,145.83275607551627,2025-10-05 23h21.52.395922 +0530,
50,c,198,2,49,c,1,0.6008751999906963,None,49,2,198,2,,,,,486.95226120000007,,486.94742860000406,486.95226120000007,487.9382377000002,487.9382377000002,487.9382377000002,487.9382377000002,487.94507400000293,488.938135599994,488.938135599994,489.54304689999844,c,1,0.6008751999906963,None,,,,,066430,001,2025-10-05_23h21.42.028,Motor Learning,2024.2.4,145.83275607551627,2025-10-05 23h21.52.395922 +0530,
-150,z,199,3,49,z,1,0.49406090000411496,None,49,3,199,3,,,,,489.5494042999926,,489.5433200999978,489.5494042999926,490.53490990000137,490.53490990000137,490.53490990000137,490.53490990000137,490.54195980000077,491.534960399993,491.534960399993,492.03081490000477,z,1,0.49406090000411496,None,,,,,066430,001,2025-10-05_23h21.42.028,Motor Learning,2024.2.4,145.83275607551627,2025-10-05 23h21.52.395922 +0530,
-150,z,0,0,0,z,1,0.7536745999968844,None,,,,,0,0,0,3,492.0402424000058,,492.036632599993,492.0402424000058,493.02083320000384,493.02083320000384,493.02083320000384,493.02083320000384,493.0345671999967,494.0205572999985,494.0205572999985,494.7791881000012,,,,,z,1,0.7536745999968844,None,066430,001,2025-10-05_23h21.42.028,Motor Learning,2024.2.4,145.83275607551627,2025-10-05 23h21.52.395922 +0530,
150,v,1,1,0,v,1,0.4998561999964295,None,,,,,0,1,1,1,494.7842138999986,,494.77957260000403,494.7842138999986,495.7703562999959,495.7703562999959,495.7703562999959,495.7703562999959,495.7774666000041,496.77047990000574,496.77047990000574,497.27216389999376,,,,,v,1,0.4998561999964295,None,066430,001,2025-10-05_23h21.42.028,Motor Learning,2024.2.4,145.83275607551627,2025-10-05 23h21.52.395922 +0530,
-50,x,2,2,0,x,1,0.4733127999934368,None,,,,,0,2,2,0,497.2771397000033,,497.27257469999313,497.2771397000033,498.26307339999767,498.26307339999767,498.26307339999767,498.26307339999767,498.26998820000154,499.26283089999924,499.26283089999924,499.7436830999941,,,,,x,1,0.4733127999934368,None,066430,001,2025-10-05_23h21.42.028,Motor Learning,2024.2.4,145.83275607551627,2025-10-05 23h21.52.395922 +0530,
-150,z,3,3,1,z,1,0.5278878000099212,None,,,,,1,3,3,3,499.7488783000008,,499.74407699999574,499.7488783000008,500.73477500000445,500.73477500000445,500.73477500000445,500.73477500000445,500.7419441999955,501.73485690000234,501.73485690000234,502.26488699999754,,,,,z,1,0.5278878000099212,None,066430,001,2025-10-05_23h21.42.028,Motor Learning,2024.2.4,145.83275607551627,2025-10-05 23h21.52.395922 +0530,
150,v,4,4,1,v,1,0.511202299996512,None,,,,,1,4,4,1,502.26945229999546,,502.2653363999998,502.26945229999546,503.25538000000233,503.25538000000233,503.25538000000233,503.25538000000233,503.26226750000205,504.2551536999963,504.2551536999963,504.7707264000055,,,,,v,1,0.511202299996512,None,066430,001,2025-10-05_23h21.42.028,Motor Learning,2024.2.4,145.83275607551627,2025-10-05 23h21.52.395922 +0530,
-150,z,5,5,2,z,1,0.5218214000051375,None,,,,,2,5,5,3,504.7759420999937,,504.7711711000011,504.7759420999937,505.76194149999355,505.76194149999355,505.76194149999355,505.76194149999355,505.7689558999991,506.76183160000073,506.76183160000073,507.29097820000607,,,,,z,1,0.5218214000051375,None,066430,001,2025-10-05_23h21.42.028,Motor Learning,2024.2.4,145.83275607551627,2025-10-05 23h21.52.395922 +0530,
50,c,6,6,0,v,0,0.4935354000044754,None,,,,,0,6,6,2,507.2965994999977,,507.2913919999992,507.2965994999977,508.28243989999464,508.28243989999464,508.28243989999464,508.28243989999464,508.2894623000029,509.2823828999972,509.2823828999972,509.78363479999825,,,,,v,0,0.4935354000044754,None,066430,001,2025-10-05_23h21.42.028,Motor Learning,2024.2.4,145.83275607551627,2025-10-05 23h21.52.395922 +0530,
-150,z,7,7,3,z,1,0.5218597999919439,None,,,,,3,7,7,3,509.7892895999976,,509.7839985000028,509.7892895999976,510.7752357999998,510.7752357999998,510.7752357999998,510.7752357999998,510.78226779999386,511.7750357000041,511.7750357000041,512.3043769999931,,,,,z,1,0.5218597999919439,None,066430,001,2025-10-05_23h21.42.028,Motor Learning,2024.2.4,145.83275607551627,2025-10-05 23h21.52.395922 +0530,
-150,z,8,8,4,z,1,0.5427060000074562,None,,,,,4,8,8,3,512.3102104999998,,512.3048118000006,512.3102104999998,513.2957053999999,513.2957053999999,513.2957053999999,513.2957053999999,513.3031476000033,514.2958517999941,514.2958517999941,514.8452671999985,,,,,z,1,0.5427060000074562,None,066430,001,2025-10-05_23h21.42.028,Motor Learning,2024.2.4,145.83275607551627,2025-10-05 23h21.52.395922 +0530,
-150,z,9,9,5,z,1,0.4211991000047419,None,,,,,5,9,9,3,514.8510976999969,,514.8456385000027,514.8510976999969,515.837080199999,515.837080199999,515.837080199999,515.837080199999,515.8438966999965,516.836879399998,516.836879399998,517.2621205000032,,,,,z,1,0.4211991000047419,None,066430,001,2025-10-05_23h21.42.028,Motor Learning,2024.2.4,145.83275607551627,2025-10-05 23h21.52.395922 +0530,
-50,x,10,10,1,x,1,0.9235348999936832,None,,,,,1,10,10,0,517.2672221999965,,517.2624119999964,517.2672221999965,518.2532536999934,518.2532536999934,518.2532536999934,518.2532536999934,518.2602566999994,519.2544988000009,519.2544988000009,520.1850684999954,,,,,x,1,0.9235348999936832,None,066430,001,2025-10-05_23h21.42.028,Motor Learning,2024.2.4,145.83275607551627,2025-10-05 23h21.52.395922 +0530,
-150,z,11,11,6,z,1,0.4945374999952037,None,,,,,6,11,11,3,520.1903890999965,,520.1854951999994,520.1903890999965,521.1763072000031,521.1763072000031,521.1763072000031,521.1763072000031,521.1833721000003,522.1762611000013,522.1762611000013,522.6777319999965,,,,,z,1,0.4945374999952037,None,066430,001,2025-10-05_23h21.42.028,Motor Learning,2024.2.4,145.83275607551627,2025-10-05 23h21.52.395922 +0530,
150,v,12,12,2,v,1,0.5169517999893287,None,,,,,2,12,12,1,522.6830961999949,,522.6782469000027,522.6830961999949,523.6691335999931,523.6691335999931,523.6691335999931,523.6691335999931,523.6759447999939,524.6688236000045,524.6688236000045,525.1913659999991,,,,,v,1,0.5169517999893287,None,066430,001,2025-10-05_23h21.42.028,Motor Learning,2024.2.4,145.83275607551627,2025-10-05 23h21.52.395922 +0530,
-50,x,13,13,2,x,1,0.8443882999999914,None,,,,,2,13,13,0,525.1965620999981,,525.191803099995,525.1965620999981,526.1825461999979,526.1825461999979,526.1825461999979,526.1825461999979,526.1899809000024,527.1824876000028,527.1824876000028,528.0310213000048,,,,,x,1,0.8443882999999914,None,066430,001,2025-10-05_23h21.42.028,Motor Learning,2024.2.4,145.83275607551627,2025-10-05 23h21.52.395922 +0530,
150,v,14,14,3,v,1,0.43725580000318587,None,,,,,3,14,14,1,528.0365579999925,,528.0315758999932,528.0365579999925,529.0224999999919,529.0224999999919,529.0224999999919,529.0224999999919,529.0293212999968,530.0224947999959,530.0224947999959,530.4615266000037,,,,,v,1,0.43725580000318587,None,066430,001,2025-10-05_23h21.42.028,Motor Learning,2024.2.4,145.83275607551627,2025-10-05 23h21.52.395922 +0530,
50,c,15,15,1,c,1,0.9835524000081932,None,,,,,1,15,15,2,530.4667494000023,,530.4619285999943,530.4667494000023,531.4528346000006,531.4528346000006,531.4528346000006,531.4528346000006,531.4597195999959,532.452592600006,532.452592600006,533.4401330999972,,,,,c,1,0.9835524000081932,None,066430,001,2025-10-05_23h21.42.028,Motor Learning,2024.2.4,145.83275607551627,2025-10-05 23h21.52.395922 +0530,
-50,x,16,16,3,x,1,0.6233140999975149,None,,,,,3,16,16,0,533.4455770000059,,533.4405338999932,533.4455770000059,534.4315369999968,534.4315369999968,534.4315369999968,534.4315369999968,534.4384812999924,535.431350800005,535.431350800005,536.0581607000058,,,,,x,1,0.6233140999975149,None,066430,001,2025-10-05_23h21.42.028,Motor Learning,2024.2.4,145.83275607551627,2025-10-05 23h21.52.395922 +0530,
-50,x,17,17,4,x,1,0.9554673000093317,None,,,,,4,17,17,0,536.0633261000039,,536.0586727000045,536.0633261000039,537.0491954000026,537.0491954000026,537.0491954000026,537.0491954000026,537.0561927999952,538.0498144000012,538.0498144000012,539.0090356000001,,,,,x,1,0.9554673000093317,None,066430,001,2025-10-05_23h21.42.028,Motor Learning,2024.2.4,145.83275607551627,2025-10-05 23h21.52.395922 +0530,
-50,x,18,18,5,x,1,0.6191197000007378,None,,,,,5,18,18,0,539.0141656000051,,539.0094299000048,539.0141656000051,540.0001593000052,540.0001593000052,540.0001593000052,540.0001593000052,540.0071282999997,541.0000391999929,541.0000391999929,541.6263691000058,,,,,x,1,0.6191197000007378,None,066430,001,2025-10-05_23h21.42.028,Motor Learning,2024.2.4,145.83275607551627,2025-10-05 23h21.52.395922 +0530,
150,v,19,19,4,v,1,0.571290299994871,None,,,,,4,19,19,1,541.6318606999994,,541.626712199999,541.6318606999994,542.6179108999931,542.6179108999931,542.6179108999931,542.6179108999931,542.6251145999995,543.6176803999988,543.6176803999988,544.1959590000042,,,,,v,1,0.571290299994871,None,066430,001,2025-10-05_23h21.42.028,Motor Learning,2024.2.4,145.83275607551627,2025-10-05 23h21.52.395922 +0530,
-150,z,20,20,7,z,1,0.5708311999915168,None,,,,,7,20,20,3,544.2009164000046,,544.1962896000041,544.2009164000046,545.1867925999977,545.1867925999977,545.1867925999977,545.1867925999977,545.1938248999941,546.1868580000009,546.1868580000009,546.7645412999991,,,,,z,1,0.5708311999915168,None,066430,001,2025-10-05_23h21.42.028,Motor Learning,2024.2.4,145.83275607551627,2025-10-05 23h21.52.395922 +0530,
50,c,21,21,2,v,0,0.869725099997595,None,,,,,2,21,21,2,546.7701175999973,,546.7649301999918,546.7701175999973,547.7559583999973,547.7559583999973,547.7559583999973,547.7559583999973,547.7629311999917,548.7558303999976,548.7558303999976,549.6320475999964,,,,,v,0,0.869725099997595,None,066430,001,2025-10-05_23h21.42.028,Motor Learning,2024.2.4,145.83275607551627,2025-10-05 23h21.52.395922 +0530,
150,v,22,22,5,v,1,0.536103299993556,None,,,,,5,22,22,1,549.6376582999947,,549.6324555000028,549.6376582999947,550.6235163999954,550.6235163999954,550.6235163999954,550.6235163999954,550.6306301000004,551.6235101000057,551.6235101000057,552.166714299994,,,,,v,1,0.536103299993556,None,066430,001,2025-10-05_23h21.42.028,Motor Learning,2024.2.4,145.83275607551627,2025-10-05 23h21.52.395922 +0530,
-50,x,23,23,6,x,1,0.5332863999938127,None,,,,,6,23,23,0,552.1719103999931,,552.1671281000017,552.1719103999931,553.1580913999933,553.1580913999933,553.1580913999933,553.1580913999933,553.1650165000028,554.1578815999965,554.1578815999965,554.6950075000059,,,,,x,1,0.5332863999938127,None,066430,001,2025-10-05_23h21.42.028,Motor Learning,2024.2.4,145.83275607551627,2025-10-05 23h21.52.395922 +0530,
150,v,24,24,6,v,1,0.4358784999931231,None,,,,,6,24,24,1,554.6992777999985,,554.6953790999978,554.6992777999985,555.685427999997,555.685427999997,555.685427999997,555.685427999997,555.6924023000029,556.685381000003,556.685381000003,557.1244335999945,,,,,v,1,0.4358784999931231,None,066430,001,2025-10-05_23h21.42.028,Motor Learning,2024.2.4,145.83275607551627,2025-10-05 23h21.52.395922 +0530,
-150,z,25,25,8,z,1,0.5923955000034766,None,,,,,8,25,25,3,557.129611700002,,557.124834599992,557.129611700002,558.1155591999996,558.1155591999996,558.1155591999996,558.1155591999996,558.1225622000056,559.1154189999943,559.1154189999943,559.7143356000015,,,,,z,1,0.5923955000034766,None,066430,001,2025-10-05_23h21.42.028,Motor Learning,2024.2.4,145.83275607551627,2025-10-05 23h21.52.395922 +0530,
-150,z,26,26,9,z,1,0.6379342000000179,None,,,,,9,26,26,3,559.7192842999939,,559.7147599000018,559.7192842999939,560.7054952000035,560.7054952000035,560.7054952000035,560.7054952000035,560.7124651000049,561.7052472999931,561.7052472999931,562.3457419000042,,,,,z,1,0.6379342000000179,None,066430,001,2025-10-05_23h21.42.028,Motor Learning,2024.2.4,145.83275607551627,2025-10-05 23h21.52.395922 +0530,
50,c,27,27,3,v,0,0.7143396000028588,None,,,,,3,27,27,2,562.351066400006,,562.3461241000041,562.351066400006,563.3372458999947,563.3372458999947,563.3372458999947,563.3372458999947,563.3439884999971,564.3369463999989,564.3369463999989,565.0540123999963,,,,,v,0,0.7143396000028588,None,066430,001,2025-10-05_23h21.42.028,Motor Learning,2024.2.4,145.83275607551627,2025-10-05 23h21.52.395922 +0530,
-50,x,28,28,7,x,1,0.8258334999991348,None,,,,,7,28,28,0,565.058878099997,,565.0543429999962,565.058878099997,566.0449592999939,566.0449592999939,566.0449592999939,566.0449592999939,566.0518812999944,567.0448861000041,567.0448861000041,567.873436599999,,,,,x,1,0.8258334999991348,None,066430,001,2025-10-05_23h21.42.028,Motor Learning,2024.2.4,145.83275607551627,2025-10-05 23h21.52.395922 +0530,
-150,z,29,29,10,z,1,0.5385835000051884,None,,,,,10,29,29,3,567.8780354000046,,567.8737823999982,567.8780354000046,568.8639688999974,568.8639688999974,568.8639688999974,568.8639688999974,568.8709797000047,569.8636922000005,569.8636922000005,570.4071324999968,,,,,z,1,0.5385835000051884,None,066430,001,2025-10-05_23h21.42.028,Motor Learning,2024.2.4,145.83275607551627,2025-10-05 23h21.52.395922 +0530,
-150,z,30,30,11,z,1,0.5386299999954645,None,,,,,11,30,30,3,570.4124155000027,,570.4076210000057,570.4124155000027,571.3985131999943,571.3985131999943,571.3985131999943,571.3985131999943,571.4051172000036,572.3981041999941,572.3981041999941,572.9413733999972,,,,,z,1,0.5386299999954645,None,066430,001,2025-10-05_23h21.42.028,Motor Learning,2024.2.4,145.83275607551627,2025-10-05 23h21.52.395922 +0530,
150,v,31,31,7,v,1,0.4338121999899158,None,,,,,7,31,31,1,572.9467994000006,,572.941802100002,572.9467994000006,573.9325925000012,573.9325925000012,573.9325925000012,573.9325925000012,573.9397411999962,574.9326165999955,574.9326165999955,575.3714517000044,,,,,v,1,0.4338121999899158,None,066430,001,2025-10-05_23h21.42.028,Motor Learning,2024.2.4,145.83275607551627,2025-10-05 23h21.52.395922 +0530,
50,c,32,32,4,v,0,1.0211032000079285,None,,,,,4,32,32,2,575.3769672000053,,575.3718978999968,575.3769672000053,576.3628220999963,576.3628220999963,576.3628220999963,576.3628220999963,576.3702212999924,577.3627097999997,577.3627097999997,578.3854142000055,,,,,v,0,1.0211032000079285,None,066430,001,2025-10-05_23h21.42.028,Motor Learning,2024.2.4,145.83275607551627,2025-10-05 23h21.52.395922 +0530,
-150,z,33,33,12,z,1,0.7325808000023244,None,,,,,12,33,33,3,578.3904056000029,,578.385720899998,578.3904056000029,579.376439700005,579.376439700005,579.376439700005,579.376439700005,579.3829781999957,580.3762418999977,580.3762418999977,581.1139294000022,,,,,z,1,0.7325808000023244,None,066430,001,2025-10-05_23h21.42.028,Motor Learning,2024.2.4,145.83275607551627,2025-10-05 23h21.52.395922 +0530,
-150,z,34,34,13,z,1,0.515444300006493,None,,,,,13,34,34,3,581.119236700004,,581.1144034000026,581.119236700004,582.1048845000041,582.1048845000041,582.1048845000041,582.1048845000041,582.1119527999981,583.1048713000055,583.1048713000055,583.6269789999933,,,,,z,1,0.515444300006493,None,066430,001,2025-10-05_23h21.42.028,Motor Learning,2024.2.4,145.83275607551627,2025-10-05 23h21.52.395922 +0530,
150,v,35,35,8,v,1,0.5499523000034969,None,,,,,8,35,35,1,583.6325724000053,,583.6273122999992,583.6325724000053,584.6185792000033,584.6185792000033,584.6185792000033,584.6185792000033,584.6255489000032,585.6185038999974,585.6185038999974,586.1754208999919,,,,,v,1,0.5499523000034969,None,066430,001,2025-10-05_23h21.42.028,Motor Learning,2024.2.4,145.83275607551627,2025-10-05 23h21.52.395922 +0530,
-150,z,36,36,14,z,1,0.45680949999950826,None,,,,,14,36,36,3,586.1806509000016,,586.1758238000039,586.1806509000016,587.1667386000045,587.1667386000045,587.1667386000045,587.1667386000045,587.1737298999942,588.1668587000022,588.1668587000022,588.6268299999938,,,,,z,1,0.45680949999950826,None,066430,001,2025-10-05_23h21.42.028,Motor Learning,2024.2.4,145.83275607551627,2025-10-05 23h21.52.395922 +0530,
-50,x,37,37,8,z,0,0.7608142999961274,None,,,,,8,37,37,0,588.6319098999957,,588.6272401000024,588.6319098999957,589.6179966000054,589.6179966000054,589.6179966000054,589.6179966000054,589.6248147000006,590.6177520999918,590.6177520999918,591.3829499999993,,,,,z,0,0.7608142999961274,None,066430,001,2025-10-05_23h21.42.028,Motor Learning,2024.2.4,145.83275607551627,2025-10-05 23h21.52.395922 +0530,
50,c,38,38,5,v,0,1.1841373999923235,None,,,,,5,38,38,2,591.3885644999973,,591.383354000005,591.3885644999973,592.3744817999977,592.3744817999977,592.3744817999977,592.3744817999977,592.3812712999934,593.3741807000042,593.3741807000042,594.5627111999929,,,,,v,0,1.1841373999923235,None,066430,001,2025-10-05_23h21.42.028,Motor Learning,2024.2.4,145.83275607551627,2025-10-05 23h21.52.395922 +0530,
-50,x,39,39,9,x,1,1.14615239998966,None,,,,,9,39,39,0,594.5684387999936,,594.5630724999937,594.5684387999936,595.5547478999943,595.5547478999943,595.5547478999943,595.5547478999943,595.5616394999961,596.5545600000041,596.5545600000041,597.7084889999969,,,,,x,1,1.14615239998966,None,066430,001,2025-10-05_23h21.42.028,Motor Learning,2024.2.4,145.83275607551627,2025-10-05 23h21.52.395922 +0530,
50,c,40,40,6,c,1,1.119216699997196,None,,,,,6,40,40,2,597.7139285000012,,597.708859099992,597.7139285000012,598.7000887000031,598.7000887000031,598.7000887000031,598.7000887000031,598.7069646000018,599.6999278000003,599.6999278000003,600.8264199999976,,,,,c,1,1.119216699997196,None,066430,001,2025-10-05_23h21.42.028,Motor Learning,2024.2.4,145.83275607551627,2025-10-05 23h21.52.395922 +0530,
150,v,41,41,9,v,1,0.5576905000052648,None,,,,,9,41,41,1,600.8316315999982,,600.8268433000048,600.8316315999982,601.8174059000012,601.8174059000012,601.8174059000012,601.8174059000012,601.8244936999981,602.8171820999996,602.8171820999996,603.3814020999998,,,,,v,1,0.5576905000052648,None,066430,001,2025-10-05_23h21.42.028,Motor Learning,2024.2.4,145.83275607551627,2025-10-05 23h21.52.395922 +0530,
50,c,42,42,7,c,1,0.8156848000071477,None,,,,,7,42,42,2,603.386586099994,,603.3817823999998,603.386586099994,604.3727184000018,604.3727184000018,604.3727184000018,604.3727184000018,604.3795491000055,605.3726454999996,605.3726454999996,606.1931375999993,,,,,c,1,0.8156848000071477,None,066430,001,2025-10-05_23h21.42.028,Motor Learning,2024.2.4,145.83275607551627,2025-10-05 23h21.52.395922 +0530,
-150,z,43,43,15,z,1,0.6979673000023467,None,,,,,15,43,43,3,606.1987910000025,,606.1935763999936,606.1987910000025,607.1848361000011,607.1848361000011,607.1848361000011,607.1848361000011,607.1918240999948,608.184743299993,608.184743299993,608.887023999996,,,,,z,1,0.6979673000023467,None,066430,001,2025-10-05_23h21.42.028,Motor Learning,2024.2.4,145.83275607551627,2025-10-05 23h21.52.395922 +0530,
150,v,44,44,10,v,1,0.6105597999994643,None,,,,,10,44,44,1,608.8928243999981,,608.8873927999957,608.8928243999981,609.8788095000054,609.8788095000054,609.8788095000054,609.8788095000054,609.8857114999992,610.8786084000021,610.8786084000021,611.4916624000034,,,,,v,1,0.6105597999994643,None,066430,001,2025-10-05_23h21.42.028,Motor Learning,2024.2.4,145.83275607551627,2025-10-05 23h21.52.395922 +0530,
