pos,corr_resp,thisN,thisTrialN,thisRepN,key_resp.keys,key_resp.corr,key_resp.rt,key_resp.duration,trials.thisRepN,trials.thisTrialN,trials.thisN,trials.thisIndex,trials_2.thisRepN,trials_2.thisTrialN,trials_2.thisN,trials_2.thisIndex,thisRow.t,notes,trial.started,fixation.started,Line_1.started,Line_2.started,Line_3.started,Line_4.started,fixation.stopped,Probe.started,key_resp.started,trial.stopped,trials.key_resp.keys,trials.key_resp.corr,trials.key_resp.rt,trials.key_resp.duration,trials_2.key_resp.keys,trials_2.key_resp.corr,trials_2.key_resp.rt,trials_2.key_resp.duration,participant,session,date,expName,psychopyVersion,frameRate,expStart,
-50,x,0,0,0,x,1,0.5794791000007535,None,0,0,0,0,,,,,0.013049499999397085,,0.00926909999907366,0.013049499999397085,0.98966400000063,0.98966400000063,0.98966400000063,0.98966400000063,1.0034455999993952,1.9961681999993743,1.9961681999993743,2.6079962000003434,x,1,0.5794791000007535,None,,,,,417450,001,2025-10-05_03h23.15.756,Motor Learning,2024.2.4,143.68518002630748,2025-10-05 03h23.22.646866 +0530,
150,v,1,1,0,v,1,0.5041983999999502,None,0,1,1,1,,,,,2.612329800000225,,2.608396999999968,2.612329800000225,3.6000638999994408,3.6000638999994408,3.6000638999994408,3.6000638999994408,3.607065500000317,4.599982800000362,4.599982800000362,5.108094699999128,v,1,0.5041983999999502,None,,,,,417450,001,2025-10-05_03h23.15.756,Motor Learning,2024.2.4,143.68518002630748,2025-10-05 03h23.22.646866 +0530,
50,c,2,2,0,c,1,0.5332471000001533,None,0,2,2,2,,,,,5.113766599999508,,5.108459099999891,5.113766599999508,6.099770799999533,6.099770799999533,6.099770799999533,6.099770799999533,6.106840899999952,7.099555900000269,7.099555900000269,7.635427699999127,c,1,0.5332471000001533,None,,,,,417450,001,2025-10-05_03h23.15.756,Motor Learning,2024.2.4,143.68518002630748,2025-10-05 03h23.22.646866 +0530,
-150,z,3,3,0,z,1,0.3195350000005419,None,0,3,3,3,,,,,7.6413962000005995,,7.635779500000353,7.6413962000005995,8.627472699999998,8.627472699999998,8.627472699999998,8.627472699999998,8.634501500000624,9.627110899999025,9.627110899999025,9.948100600000544,z,1,0.3195350000005419,None,,,,,417450,001,2025-10-05_03h23.15.756,Motor Learning,2024.2.4,143.68518002630748,2025-10-05 03h23.22.646866 +0530,
-50,x,4,0,1,x,1,0.8338177999994514,None,1,0,4,0,,,,,9.953362500000367,,9.948852999999872,9.953362500000367,10.939337100000557,10.939337100000557,10.939337100000557,10.939337100000557,10.946350399999574,11.939179400000285,11.939179400000285,12.774674599999344,x,1,0.8338177999994514,None,,,,,417450,001,2025-10-05_03h23.15.756,Motor Learning,2024.2.4,143.68518002630748,2025-10-05 03h23.22.646866 +0530,
150,v,5,1,1,v,1,0.3701889999993,None,1,1,5,1,,,,,12.779484400000001,,12.77505740000015,12.779484400000001,13.765554899999188,13.765554899999188,13.765554899999188,13.765554899999188,13.77260380000007,14.765370099999927,14.765370099999927,15.142020299999785,v,1,0.3701889999993,None,,,,,417450,001,2025-10-05_03h23.15.756,Motor Learning,2024.2.4,143.68518002630748,2025-10-05 03h23.22.646866 +0530,
50,c,6,2,1,c,1,0.8870021000002453,None,1,2,6,2,,,,,15.147766599999159,,15.142335000000458,15.147766599999159,16.133491099999446,16.133491099999446,16.133491099999446,16.133491099999446,16.14070989999891,17.133289199999126,17.133289199999126,18.02382480000051,c,1,0.8870021000002453,None,,,,,417450,001,2025-10-05_03h23.15.756,Motor Learning,2024.2.4,143.68518002630748,2025-10-05 03h23.22.646866 +0530,
-150,z,7,3,1,z,1,0.6315959999992629,None,1,3,7,3,,,,,18.029445500000293,,18.024170499998945,18.029445500000293,19.014797300000282,19.014797300000282,19.014797300000282,19.014797300000282,19.021730700000262,20.01471549999951,20.01471549999951,20.64782279999963,z,1,0.6315959999992629,None,,,,,417450,001,2025-10-05_03h23.15.756,Motor Learning,2024.2.4,143.68518002630748,2025-10-05 03h23.22.646866 +0530,
-50,x,8,0,2,x,1,0.6714255000006233,None,2,0,8,0,,,,,20.653425599999537,,20.6482632999996,20.653425599999537,21.63930579999942,21.63930579999942,21.63930579999942,21.63930579999942,21.646218800000497,22.639191700000083,22.639191700000083,23.313810800000283,x,1,0.6714255000006233,None,,,,,417450,001,2025-10-05_03h23.15.756,Motor Learning,2024.2.4,143.68518002630748,2025-10-05 03h23.22.646866 +0530,
150,v,9,1,2,v,1,0.8337454000011348,None,2,1,9,1,,,,,23.319420399999217,,23.314123399999517,23.319420399999217,24.305469700000685,24.305469700000685,24.305469700000685,24.305469700000685,24.31245510000008,25.305427999999665,25.305427999999665,26.141207499998927,v,1,0.8337454000011348,None,,,,,417450,001,2025-10-05_03h23.15.756,Motor Learning,2024.2.4,143.68518002630748,2025-10-05 03h23.22.646866 +0530,
50,c,10,2,2,c,1,0.7255895999987843,None,2,2,10,2,,,,,26.145716099999845,,26.14158580000003,26.145716099999845,27.13157659999888,27.13157659999888,27.13157659999888,27.13157659999888,27.138481500000125,28.13166470000033,28.13166470000033,28.861046500000157,c,1,0.7255895999987843,None,,,,,417450,001,2025-10-05_03h23.15.756,Motor Learning,2024.2.4,143.68518002630748,2025-10-05 03h23.22.646866 +0530,
-150,z,11,3,2,z,1,0.6522937000008824,None,2,3,11,3,,,,,28.867256100000304,,28.86130039999989,28.867256100000304,29.85351830000036,29.85351830000036,29.85351830000036,29.85351830000036,29.86050129999967,30.853386999999202,30.853386999999202,31.507207099999505,z,1,0.6522937000008824,None,,,,,417450,001,2025-10-05_03h23.15.756,Motor Learning,2024.2.4,143.68518002630748,2025-10-05 03h23.22.646866 +0530,
-50,x,12,0,3,x,1,0.4468816999997216,None,3,0,12,0,,,,,31.513167600000088,,31.50745520000055,31.513167600000088,32.499084900000526,32.499084900000526,32.499084900000526,32.499084900000526,32.50607390000005,33.49875299999985,33.49875299999985,33.952336399999695,x,1,0.4468816999997216,None,,,,,417450,001,2025-10-05_03h23.15.756,Motor Learning,2024.2.4,143.68518002630748,2025-10-05 03h23.22.646866 +0530,
150,v,13,1,3,v,1,0.48740929999985383,None,3,1,13,1,,,,,33.95682080000006,,33.95262550000007,33.95682080000006,34.94313169999987,34.94313169999987,34.94313169999987,34.94313169999987,34.94987480000054,35.942857000000004,35.942857000000004,36.437864499999705,v,1,0.48740929999985383,None,,,,,417450,001,2025-10-05_03h23.15.756,Motor Learning,2024.2.4,143.68518002630748,2025-10-05 03h23.22.646866 +0530,
50,c,14,2,3,c,1,0.4692135999994207,None,3,2,14,2,,,,,36.442858700000215,,36.438192999999956,36.442858700000215,37.42869140000039,37.42869140000039,37.42869140000039,37.42869140000039,37.43567299999995,38.428416099999595,38.428416099999595,38.90185360000032,c,1,0.4692135999994207,None,,,,,417450,001,2025-10-05_03h23.15.756,Motor Learning,2024.2.4,143.68518002630748,2025-10-05 03h23.22.646866 +0530,
-150,z,15,3,3,z,1,0.29787579999901936,None,3,3,15,3,,,,,38.90749340000002,,38.90221349999956,38.90749340000002,39.8937289000005,39.8937289000005,39.8937289000005,39.8937289000005,39.9006604999995,40.89337870000054,40.89337870000054,41.193998900000224,z,1,0.29787579999901936,None,,,,,417450,001,2025-10-05_03h23.15.756,Motor Learning,2024.2.4,143.68518002630748,2025-10-05 03h23.22.646866 +0530,
-50,x,16,0,4,x,1,0.8810986000007688,None,4,0,16,0,,,,,41.19897040000069,,41.194405799999004,41.19897040000069,42.185127799999464,42.185127799999464,42.185127799999464,42.185127799999464,42.191830600000685,43.18504949999988,43.18504949999988,44.0681356999994,x,1,0.8810986000007688,None,,,,,417450,001,2025-10-05_03h23.15.756,Motor Learning,2024.2.4,143.68518002630748,2025-10-05 03h23.22.646866 +0530,
150,v,17,1,4,v,1,0.4257718999997451,None,4,1,17,1,,,,,44.0737124999996,,44.06841220000024,44.0737124999996,45.0598016999993,45.0598016999993,45.0598016999993,45.0598016999993,45.06670850000046,46.05944889999955,46.05944889999955,46.49079320000055,v,1,0.4257718999997451,None,,,,,417450,001,2025-10-05_03h23.15.756,Motor Learning,2024.2.4,143.68518002630748,2025-10-05 03h23.22.646866 +0530,
50,c,18,2,4,c,1,0.49456280000049446,None,4,2,18,2,,,,,46.4967558999997,,46.49142740000025,46.4967558999997,47.482643299999836,47.482643299999836,47.482643299999836,47.482643299999836,47.489549399999305,48.48255169999902,48.48255169999902,48.983658600000126,c,1,0.49456280000049446,None,,,,,417450,001,2025-10-05_03h23.15.756,Motor Learning,2024.2.4,143.68518002630748,2025-10-05 03h23.22.646866 +0530,
-150,z,19,3,4,z,1,0.5540524999996705,None,4,3,19,3,,,,,48.98931640000046,,48.98403850000068,48.98931640000046,49.97563549999904,49.97563549999904,49.97563549999904,49.97563549999904,49.982339799998954,50.975426799999696,50.975426799999696,51.53252699999939,z,1,0.5540524999996705,None,,,,,417450,001,2025-10-05_03h23.15.756,Motor Learning,2024.2.4,143.68518002630748,2025-10-05 03h23.22.646866 +0530,
-50,x,20,0,5,x,1,0.5897375999993528,None,5,0,20,0,,,,,51.5377110999998,,51.532820399999764,51.5377110999998,52.523576100000355,52.523576100000355,52.523576100000355,52.523576100000355,52.53041789999952,53.52382170000055,53.52382170000055,54.1156418999999,x,1,0.5897375999993528,None,,,,,417450,001,2025-10-05_03h23.15.756,Motor Learning,2024.2.4,143.68518002630748,2025-10-05 03h23.22.646866 +0530,
150,v,21,1,5,v,1,0.5104238999992958,None,5,1,21,1,,,,,54.12052179999955,,54.116077399999995,54.12052179999955,55.10673859999952,55.10673859999952,55.10673859999952,55.10673859999952,55.113771199999974,56.1070536999996,56.1070536999996,56.62169940000058,v,1,0.5104238999992958,None,,,,,417450,001,2025-10-05_03h23.15.756,Motor Learning,2024.2.4,143.68518002630748,2025-10-05 03h23.22.646866 +0530,
50,c,22,2,5,c,1,0.4941560999996,None,5,2,22,2,,,,,56.62723820000065,,56.62210699999923,56.62723820000065,57.61302000000069,57.61302000000069,57.61302000000069,57.61302000000069,57.620142300000225,58.612885200000164,58.612885200000164,59.11430999999902,c,1,0.4941560999996,None,,,,,417450,001,2025-10-05_03h23.15.756,Motor Learning,2024.2.4,143.68518002630748,2025-10-05 03h23.22.646866 +0530,
-150,z,23,3,5,z,1,0.6136821000000054,None,5,3,23,3,,,,,59.12040109999907,,59.114598000000115,59.12040109999907,60.1061950000003,60.1061950000003,60.1061950000003,60.1061950000003,60.112898100000166,61.10615180000059,61.10615180000059,61.725155399999494,z,1,0.6136821000000054,None,,,,,417450,001,2025-10-05_03h23.15.756,Motor Learning,2024.2.4,143.68518002630748,2025-10-05 03h23.22.646866 +0530,
-50,x,24,0,6,x,1,0.5783491000001959,None,6,0,24,0,,,,,61.73055690000001,,61.725525100000596,61.73055690000001,62.71671839999908,62.71671839999908,62.71671839999908,62.71671839999908,62.72372379999979,63.71667340000022,63.71667340000022,64.30142739999974,x,1,0.5783491000001959,None,,,,,417450,001,2025-10-05_03h23.15.756,Motor Learning,2024.2.4,143.68518002630748,2025-10-05 03h23.22.646866 +0530,
150,v,25,1,6,v,1,0.6406007000005047,None,6,1,25,1,,,,,64.3065803999998,,64.30200610000065,64.3065803999998,65.2928226999993,65.2928226999993,65.2928226999993,65.2928226999993,65.29962849999902,66.29269679999925,66.29269679999925,66.93993520000004,v,1,0.6406007000005047,None,,,,,417450,001,2025-10-05_03h23.15.756,Motor Learning,2024.2.4,143.68518002630748,2025-10-05 03h23.22.646866 +0530,
50,c,26,2,6,c,1,0.6064862999992329,None,6,2,26,2,,,,,66.94504190000043,,66.94041259999904,66.94504190000043,67.93107579999923,67.93107579999923,67.93107579999923,67.93107579999923,67.93817390000004,68.93120649999946,68.93120649999946,69.5433821000006,c,1,0.6064862999992329,None,,,,,417450,001,2025-10-05_03h23.15.756,Motor Learning,2024.2.4,143.68518002630748,2025-10-05 03h23.22.646866 +0530,
-150,z,27,3,6,z,1,0.3622530000011466,None,6,3,27,3,,,,,69.54884639999909,,69.54371480000009,69.54884639999909,70.53500059999897,70.53500059999897,70.53500059999897,70.53500059999897,70.54199549999976,71.53484340000068,71.53484340000068,71.90347889999975,z,1,0.3622530000011466,None,,,,,417450,001,2025-10-05_03h23.15.756,Motor Learning,2024.2.4,143.68518002630748,2025-10-05 03h23.22.646866 +0530,
-50,x,28,0,7,x,1,0.5317969000006997,None,7,0,28,0,,,,,71.90960540000015,,71.90373009999894,71.90960540000015,72.89577139999892,72.89577139999892,72.89577139999892,72.89577139999892,72.90266209999936,73.89588739999999,73.89588739999999,74.43151519999992,x,1,0.5317969000006997,None,,,,,417450,001,2025-10-05_03h23.15.756,Motor Learning,2024.2.4,143.68518002630748,2025-10-05 03h23.22.646866 +0530,
150,v,29,1,7,v,1,0.7701162000012118,None,7,1,29,1,,,,,74.4375629999995,,74.43203119999998,74.4375629999995,75.42332419999912,75.42332419999912,75.42332419999912,75.42332419999912,75.43029120000028,76.42316469999969,76.42316469999969,77.19600349999928,v,1,0.7701162000012118,None,,,,,417450,001,2025-10-05_03h23.15.756,Motor Learning,2024.2.4,143.68518002630748,2025-10-05 03h23.22.646866 +0530,
50,c,30,2,7,c,1,1.6912489000005735,None,7,2,30,2,,,,,77.20101839999916,,77.19633099999919,77.20101839999916,78.18683919999967,78.18683919999967,78.18683919999967,78.18683919999967,78.19391609999911,79.1864827999998,79.1864827999998,80.88254400000005,c,1,1.6912489000005735,None,,,,,417450,001,2025-10-05_03h23.15.756,Motor Learning,2024.2.4,143.68518002630748,2025-10-05 03h23.22.646866 +0530,
-150,z,31,3,7,z,1,0.49332569999933185,None,7,3,31,3,,,,,80.88780729999962,,80.88288769999963,80.88780729999962,81.87372850000065,81.87372850000065,81.87372850000065,81.87372850000065,81.88079110000035,82.87419480000062,82.87419480000062,83.37393619999966,z,1,0.49332569999933185,None,,,,,417450,001,2025-10-05_03h23.15.756,Motor Learning,2024.2.4,143.68518002630748,2025-10-05 03h23.22.646866 +0530,
-50,x,32,0,8,x,1,0.4251987999996345,None,8,0,32,0,,,,,83.38029110000025,,83.3741485999999,83.38029110000025,84.36668019999888,84.36668019999888,84.36668019999888,84.36668019999888,84.37401929999942,85.36623490000056,85.36623490000056,85.79850029999943,x,1,0.4251987999996345,None,,,,,417450,001,2025-10-05_03h23.15.756,Motor Learning,2024.2.4,143.68518002630748,2025-10-05 03h23.22.646866 +0530,
150,v,33,1,8,v,1,0.3094361999992543,None,8,1,33,1,,,,,85.80365089999941,,85.7988652999993,85.80365089999941,86.78966319999927,86.78966319999927,86.78966319999927,86.78966319999927,86.79660279999916,87.78959000000032,87.78959000000032,88.10321490000024,v,1,0.3094361999992543,None,,,,,417450,001,2025-10-05_03h23.15.756,Motor Learning,2024.2.4,143.68518002630748,2025-10-05 03h23.22.646866 +0530,
50,c,34,2,8,c,1,0.24435100000118837,None,8,2,34,2,,,,,88.1087222999995,,88.10354270000062,88.1087222999995,89.09499870000036,89.09499870000036,89.09499870000036,89.09499870000036,89.10197490000064,90.09470599999986,90.09470599999986,90.34592429999975,c,1,0.24435100000118837,None,,,,,417450,001,2025-10-05_03h23.15.756,Motor Learning,2024.2.4,143.68518002630748,2025-10-05 03h23.22.646866 +0530,
-150,z,35,3,8,z,1,0.30461430000104883,None,8,3,35,3,,,,,90.35160899999937,,90.34630619999916,90.35160899999937,91.33755579999888,91.33755579999888,91.33755579999888,91.33755579999888,91.34461600000031,92.33770860000004,92.33770860000004,92.64592799999991,z,1,0.30461430000104883,None,,,,,417450,001,2025-10-05_03h23.15.756,Motor Learning,2024.2.4,143.68518002630748,2025-10-05 03h23.22.646866 +0530,
-50,x,36,0,9,x,1,0.4378372999999556,None,9,0,36,0,,,,,92.65008230000058,,92.64622039999995,92.65008230000058,93.63603770000009,93.63603770000009,93.63603770000009,93.63603770000009,93.6428689000004,94.63583520000066,94.63583520000066,95.07533890000013,x,1,0.4378372999999556,None,,,,,417450,001,2025-10-05_03h23.15.756,Motor Learning,2024.2.4,143.68518002630748,2025-10-05 03h23.22.646866 +0530,
150,v,37,1,9,v,1,0.3686377999983961,None,9,1,37,1,,,,,95.08010090000062,,95.07562979999966,95.08010090000062,96.06611309999971,96.06611309999971,96.06611309999971,96.06611309999971,96.07317010000043,97.06650749999972,97.06650749999972,97.44170739999936,v,1,0.3686377999983961,None,,,,,417450,001,2025-10-05_03h23.15.756,Motor Learning,2024.2.4,143.68518002630748,2025-10-05 03h23.22.646866 +0530,
50,c,38,2,9,c,1,0.34606730000086827,None,9,2,38,2,,,,,97.44766929999969,,97.4420683999997,97.44766929999969,98.4339973999995,98.4339973999995,98.4339973999995,98.4339973999995,98.44081790000018,99.4336800000001,99.4336800000001,99.78301959999953,c,1,0.34606730000086827,None,,,,,417450,001,2025-10-05_03h23.15.756,Motor Learning,2024.2.4,143.68518002630748,2025-10-05 03h23.22.646866 +0530,
-150,z,39,3,9,z,1,0.2798631000005116,None,9,3,39,3,,,,,99.78775019999921,,99.78337590000046,99.78775019999921,100.7737634999994,100.7737634999994,100.7737634999994,100.7737634999994,100.780677499999,101.77368860000024,101.77368860000024,102.05945679999968,z,1,0.2798631000005116,None,,,,,417450,001,2025-10-05_03h23.15.756,Motor Learning,2024.2.4,143.68518002630748,2025-10-05 03h23.22.646866 +0530,
-50,x,40,0,10,x,1,0.2605191000002378,None,10,0,40,0,,,,,102.0651670999996,,102.05974520000018,102.0651670999996,103.05122809999921,103.05122809999921,103.05122809999921,103.05122809999921,103.05817559999923,104.05112469999949,104.05112469999949,104.31599950000054,x,1,0.2605191000002378,None,,,,,417450,001,2025-10-05_03h23.15.756,Motor Learning,2024.2.4,143.68518002630748,2025-10-05 03h23.22.646866 +0530,
150,v,41,1,10,v,1,0.24924129999999423,None,10,1,41,1,,,,,104.32184149999921,,104.31626959999994,104.32184149999921,105.30802829999993,105.30802829999993,105.30802829999993,105.30802829999993,105.31480150000061,106.30775419999918,106.30775419999918,106.55922689999898,v,1,0.24924129999999423,None,,,,,417450,001,2025-10-05_03h23.15.756,Motor Learning,2024.2.4,143.68518002630748,2025-10-05 03h23.22.646866 +0530,
50,c,42,2,10,c,1,0.25527820000024803,None,10,2,42,2,,,,,106.56470979999904,,106.55950569999914,106.56470979999904,107.55106949999936,107.55106949999936,107.55106949999936,107.55106949999936,107.55762119999963,108.55045860000064,108.55045860000064,108.80847299999914,c,1,0.25527820000024803,None,,,,,417450,001,2025-10-05_03h23.15.756,Motor Learning,2024.2.4,143.68518002630748,2025-10-05 03h23.22.646866 +0530,
-150,z,43,3,10,z,1,0.255823399998917,None,10,3,43,3,,,,,108.8141001999993,,108.80889980000029,108.8141001999993,109.80005150000034,109.80005150000034,109.80005150000034,109.80005150000034,109.80707040000016,110.7998862000004,110.7998862000004,111.05850379999902,z,1,0.255823399998917,None,,,,,417450,001,2025-10-05_03h23.15.756,Motor Learning,2024.2.4,143.68518002630748,2025-10-05 03h23.22.646866 +0530,
-50,x,44,0,11,x,1,0.35807739999836485,None,11,0,44,0,,,,,111.06382119999944,,111.05877940000028,111.06382119999944,112.0499404000002,112.0499404000002,112.0499404000002,112.0499404000002,112.05688539999937,113.04976630000056,113.04976630000056,113.41173609999896,x,1,0.35807739999836485,None,,,,,417450,001,2025-10-05_03h23.15.756,Motor Learning,2024.2.4,143.68518002630748,2025-10-05 03h23.22.646866 +0530,
150,v,45,1,11,v,1,0.2795146999997087,None,11,1,45,1,,,,,113.41844619999938,,113.41195169999992,113.41844619999938,114.40373050000017,114.40373050000017,114.40373050000017,114.40373050000017,114.41075909999927,115.40349830000014,115.40349830000014,115.68938580000031,v,1,0.2795146999997087,None,,,,,417450,001,2025-10-05_03h23.15.756,Motor Learning,2024.2.4,143.68518002630748,2025-10-05 03h23.22.646866 +0530,
50,c,46,2,11,c,1,0.3858963999991829,None,11,2,46,2,,,,,115.69513209999968,,115.68970799999988,115.69513209999968,116.68141749999995,116.68141749999995,116.68141749999995,116.68141749999995,116.68814659999953,117.6808975999993,117.6808975999993,118.07115700000031,c,1,0.3858963999991829,None,,,,,417450,001,2025-10-05_03h23.15.756,Motor Learning,2024.2.4,143.68518002630748,2025-10-05 03h23.22.646866 +0530,
-150,z,47,3,11,z,1,0.28072640000027604,None,11,3,47,3,,,,,118.0770195999994,,118.0714850000004,118.0770195999994,119.06266909999977,119.06266909999977,119.06266909999977,119.06266909999977,119.0696953000006,120.06233950000023,120.06233950000023,120.34800519999953,z,1,0.28072640000027604,None,,,,,417450,001,2025-10-05_03h23.15.756,Motor Learning,2024.2.4,143.68518002630748,2025-10-05 03h23.22.646866 +0530,
-50,x,48,0,12,x,1,0.828021199999057,None,12,0,48,0,,,,,120.35419150000052,,120.34828729999936,120.35419150000052,121.34015790000012,121.34015790000012,121.34015790000012,121.34015790000012,121.3470742999998,122.33999070000027,122.33999070000027,123.17480249999971,x,1,0.828021199999057,None,,,,,417450,001,2025-10-05_03h23.15.756,Motor Learning,2024.2.4,143.68518002630748,2025-10-05 03h23.22.646866 +0530,
150,v,49,1,12,v,1,0.2331968999988021,None,12,1,49,1,,,,,123.1801534999995,,123.1751351999992,123.1801534999995,124.16610570000012,124.16610570000012,124.16610570000012,124.16610570000012,124.17316709999977,125.16601300000002,125.16601300000002,125.40326490000007,v,1,0.2331968999988021,None,,,,,417450,001,2025-10-05_03h23.15.756,Motor Learning,2024.2.4,143.68518002630748,2025-10-05 03h23.22.646866 +0530,
50,c,50,2,12,c,1,0.3184019000000262,None,12,2,50,2,,,,,125.40889389999938,,125.40354730000035,125.40889389999938,126.39500129999942,126.39500129999942,126.39500129999942,126.39500129999942,126.40200949999962,127.39472340000066,127.39472340000066,127.71610630000032,c,1,0.3184019000000262,None,,,,,417450,001,2025-10-05_03h23.15.756,Motor Learning,2024.2.4,143.68518002630748,2025-10-05 03h23.22.646866 +0530,
-150,z,51,3,12,z,1,0.22591560000000754,None,12,3,51,3,,,,,127.72109300000011,,127.71649559999969,127.72109300000011,128.70709999999963,128.70709999999963,128.70709999999963,128.70709999999963,128.71405839999898,129.7071235000003,129.7071235000003,129.93776780000007,z,1,0.22591560000000754,None,,,,,417450,001,2025-10-05_03h23.15.756,Motor Learning,2024.2.4,143.68518002630748,2025-10-05 03h23.22.646866 +0530,
-50,x,52,0,13,x,1,0.24802309999904537,None,13,0,52,0,,,,,129.9430952999992,,129.9380646999998,129.9430952999992,130.92915569999968,130.92915569999968,130.92915569999968,130.92915569999968,130.9358321999989,131.92888239999957,131.92888239999957,132.17969730000004,x,1,0.24802309999904537,None,,,,,417450,001,2025-10-05_03h23.15.756,Motor Learning,2024.2.4,143.68518002630748,2025-10-05 03h23.22.646866 +0530,
150,v,53,1,13,v,1,0.2455843999996432,None,13,1,53,1,,,,,132.18575000000055,,132.17996409999978,132.18575000000055,133.17175359999965,133.17175359999965,133.17175359999965,133.17175359999965,133.17861789999915,134.17180439999902,134.17180439999902,134.42304180000065,v,1,0.2455843999996432,None,,,,,417450,001,2025-10-05_03h23.15.756,Motor Learning,2024.2.4,143.68518002630748,2025-10-05 03h23.22.646866 +0530,
50,c,54,2,13,x,0,0.3947932999999466,None,13,2,54,2,,,,,134.42837549999967,,134.4234204000004,134.42837549999967,135.41458240000065,135.41458240000065,135.41458240000065,135.41458240000065,135.4214394999999,136.41446929999984,136.41446929999984,136.81109789999937,x,0,0.3947932999999466,None,,,,,417450,001,2025-10-05_03h23.15.756,Motor Learning,2024.2.4,143.68518002630748,2025-10-05 03h23.22.646866 +0530,
-150,z,55,3,13,z,1,0.24625170000035723,None,13,3,55,3,,,,,136.81699970000045,,136.81137499999932,136.81699970000045,137.80352870000024,137.80352870000024,137.80352870000024,137.80352870000024,137.81040419999954,138.80293159999928,138.80293159999928,139.0537714000002,z,1,0.24625170000035723,None,,,,,417450,001,2025-10-05_03h23.15.756,Motor Learning,2024.2.4,143.68518002630748,2025-10-05 03h23.22.646866 +0530,
-50,x,56,0,14,x,1,0.26552519999859214,None,14,0,56,0,,,,,139.05992680000054,,139.05394259999957,139.05992680000054,140.04570500000045,140.04570500000045,140.04570500000045,140.04570500000045,140.05268710000018,141.04562219999934,141.04562219999934,141.3174313999989,x,1,0.26552519999859214,None,,,,,417450,001,2025-10-05_03h23.15.756,Motor Learning,2024.2.4,143.68518002630748,2025-10-05 03h23.22.646866 +0530,
150,v,57,1,14,v,1,0.2096110000002227,None,14,1,57,1,,,,,141.3232293000001,,141.31773239999893,141.3232293000001,142.30911360000027,142.30911360000027,142.30911360000027,142.30911360000027,142.31623519999994,143.30888330000016,143.30888330000016,143.52598559999933,v,1,0.2096110000002227,None,,,,,417450,001,2025-10-05_03h23.15.756,Motor Learning,2024.2.4,143.68518002630748,2025-10-05 03h23.22.646866 +0530,
50,c,58,2,14,c,1,0.39854359999844746,None,14,2,58,2,,,,,143.5313026999993,,143.52634960000069,143.5313026999993,144.51746640000056,144.51746640000056,144.51746640000056,144.51746640000056,144.52495830000043,145.51713589999963,145.51713589999963,145.92103159999897,c,1,0.39854359999844746,None,,,,,417450,001,2025-10-05_03h23.15.756,Motor Learning,2024.2.4,143.68518002630748,2025-10-05 03h23.22.646866 +0530,
-150,z,59,3,14,z,1,0.2569900999988022,None,14,3,59,3,,,,,145.9266807999993,,145.9214068000001,145.9266807999993,146.91267089999928,146.91267089999928,146.91267089999928,146.91267089999928,146.91966870000033,147.91242579999926,147.91242579999926,148.17150609999953,z,1,0.2569900999988022,None,,,,,417450,001,2025-10-05_03h23.15.756,Motor Learning,2024.2.4,143.68518002630748,2025-10-05 03h23.22.646866 +0530,
-50,x,60,0,15,x,1,0.4913083999999799,None,15,0,60,0,,,,,148.17668819999926,,148.17190010000013,148.17668819999926,149.16272310000022,149.16272310000022,149.16272310000022,149.16272310000022,149.16961300000003,150.1622828999989,150.1622828999989,150.65635180000027,x,1,0.4913083999999799,None,,,,,417450,001,2025-10-05_03h23.15.756,Motor Learning,2024.2.4,143.68518002630748,2025-10-05 03h23.22.646866 +0530,
150,v,61,1,15,v,1,0.27529950000098324,None,15,1,61,1,,,,,150.66209929999968,,150.65672090000044,150.66209929999968,151.64808129999983,151.64808129999983,151.64808129999983,151.64808129999983,151.65505719999965,152.64799309999944,152.64799309999944,152.9272060000003,v,1,0.27529950000098324,None,,,,,417450,001,2025-10-05_03h23.15.756,Motor Learning,2024.2.4,143.68518002630748,2025-10-05 03h23.22.646866 +0530,
50,c,62,2,15,c,1,0.4292933999986417,None,15,2,62,2,,,,,152.9330704999993,,152.92747249999957,152.9330704999993,153.9190295999997,153.9190295999997,153.9190295999997,153.9190295999997,153.92573079999966,154.91847959999905,154.91847959999905,155.34960820000015,c,1,0.4292933999986417,None,,,,,417450,001,2025-10-05_03h23.15.756,Motor Learning,2024.2.4,143.68518002630748,2025-10-05 03h23.22.646866 +0530,
-150,z,63,3,15,z,1,0.31544489999942016,None,15,3,63,3,,,,,155.35596540000006,,155.34978129999945,155.35596540000006,156.34201199999916,156.34201199999916,156.34201199999916,156.34201199999916,156.3487365000001,157.3417644000001,157.3417644000001,157.66269660000034,z,1,0.31544489999942016,None,,,,,417450,001,2025-10-05_03h23.15.756,Motor Learning,2024.2.4,143.68518002630748,2025-10-05 03h23.22.646866 +0530,
-50,x,64,0,16,x,1,0.293583700000454,None,16,0,64,0,,,,,157.6681024999998,,157.66306239999903,157.6681024999998,158.6543301999991,158.6543301999991,158.6543301999991,158.6543301999991,158.6612716999989,159.65403460000016,159.65403460000016,159.95340249999936,x,1,0.293583700000454,None,,,,,417450,001,2025-10-05_03h23.15.756,Motor Learning,2024.2.4,143.68518002630748,2025-10-05 03h23.22.646866 +0530,
150,v,65,1,16,v,1,0.5134514000001218,None,16,1,65,1,,,,,159.95941499999935,,159.95363050000014,159.95941499999935,160.9453379000006,160.9453379000006,160.9453379000006,160.9453379000006,160.9522304000002,161.94556340000054,161.94556340000054,162.46080280000024,v,1,0.5134514000001218,None,,,,,417450,001,2025-10-05_03h23.15.756,Motor Learning,2024.2.4,143.68518002630748,2025-10-05 03h23.22.646866 +0530,
50,c,66,2,16,c,1,0.43971700000111014,None,16,2,66,2,,,,,162.4659589999992,,162.46115540000028,162.4659589999992,163.45193730000028,163.45193730000028,163.45193730000028,163.45193730000028,163.45890800000052,164.45216260000052,164.45216260000052,164.8973602999995,c,1,0.43971700000111014,None,,,,,417450,001,2025-10-05_03h23.15.756,Motor Learning,2024.2.4,143.68518002630748,2025-10-05 03h23.22.646866 +0530,
-150,z,67,3,16,z,1,0.2857121000015468,None,16,3,67,3,,,,,164.90316580000035,,164.89764640000067,164.90316580000035,165.88944880000054,165.88944880000054,165.88944880000054,165.88944880000054,165.89632170000004,166.8893171999989,166.8893171999989,167.18209070000012,z,1,0.2857121000015468,None,,,,,417450,001,2025-10-05_03h23.15.756,Motor Learning,2024.2.4,143.68518002630748,2025-10-05 03h23.22.646866 +0530,
-50,x,68,0,17,x,1,0.33227269999952114,None,17,0,68,0,,,,,167.18777020000016,,167.1824099000005,167.18777020000016,168.1736736999992,168.1736736999992,168.1736736999992,168.1736736999992,168.18057469999985,169.17355879999923,169.17355879999923,169.50951150000037,x,1,0.33227269999952114,None,,,,,417450,001,2025-10-05_03h23.15.756,Motor Learning,2024.2.4,143.68518002630748,2025-10-05 03h23.22.646866 +0530,
150,v,69,1,17,v,1,0.30813620000117226,None,17,1,69,1,,,,,169.51373559999956,,169.50988019999932,169.51373559999956,170.49972779999916,170.49972779999916,170.49972779999916,170.49972779999916,170.50646980000056,171.49950960000024,171.49950960000024,171.81326330000047,v,1,0.30813620000117226,None,,,,,417450,001,2025-10-05_03h23.15.756,Motor Learning,2024.2.4,143.68518002630748,2025-10-05 03h23.22.646866 +0530,
50,c,70,2,17,c,1,0.35494889999972656,None,17,2,70,2,,,,,171.81904779999968,,171.813623,171.81904779999968,172.805053099999,172.805053099999,172.805053099999,172.805053099999,172.81199500000002,173.80470520000017,173.80470520000017,174.1668981999992,c,1,0.35494889999972656,None,,,,,417450,001,2025-10-05_03h23.15.756,Motor Learning,2024.2.4,143.68518002630748,2025-10-05 03h23.22.646866 +0530,
-150,z,71,3,17,z,1,0.30110400000012305,None,17,3,71,3,,,,,174.1726755999989,,174.16727119999996,174.1726755999989,175.1590053,175.1590053,175.1590053,175.1590053,175.165705899999,176.1583998999995,176.1583998999995,176.46592109999983,z,1,0.30110400000012305,None,,,,,417450,001,2025-10-05_03h23.15.756,Motor Learning,2024.2.4,143.68518002630748,2025-10-05 03h23.22.646866 +0530,
-50,x,72,0,18,x,1,0.27611910000086937,None,18,0,72,0,,,,,176.47102040000027,,176.46627780000017,176.47102040000027,177.45719439999993,177.45719439999993,177.45719439999993,177.45719439999993,177.46407890000046,178.45684029999939,178.45684029999939,178.73682689999987,x,1,0.27611910000086937,None,,,,,417450,001,2025-10-05_03h23.15.756,Motor Learning,2024.2.4,143.68518002630748,2025-10-05 03h23.22.646866 +0530,
150,v,73,1,18,v,1,0.2501676000010775,None,18,1,73,1,,,,,178.74175019999893,,178.7370802000005,178.74175019999893,179.7275264,179.7275264,179.7275264,179.7275264,179.73433169999953,180.72760509999898,180.72760509999898,180.98570839999957,v,1,0.2501676000010775,None,,,,,417450,001,2025-10-05_03h23.15.756,Motor Learning,2024.2.4,143.68518002630748,2025-10-05 03h23.22.646866 +0530,
50,c,74,2,18,c,1,0.4307033000004594,None,18,2,74,2,,,,,180.99119679999967,,180.9860804,180.99119679999967,181.9772524,181.9772524,181.9772524,181.9772524,181.984574099999,182.9771139000004,182.9771139000004,183.41517269999895,c,1,0.4307033000004594,None,,,,,417450,001,2025-10-05_03h23.15.756,Motor Learning,2024.2.4,143.68518002630748,2025-10-05 03h23.22.646866 +0530,
-150,z,75,3,18,z,1,0.3225831999989168,None,18,3,75,3,,,,,183.42125839999972,,183.41547750000063,183.42125839999972,184.40747770000053,184.40747770000053,184.40747770000053,184.40747770000053,184.41434519999893,185.40710050000052,185.40710050000052,185.7349704999997,z,1,0.3225831999989168,None,,,,,417450,001,2025-10-05_03h23.15.756,Motor Learning,2024.2.4,143.68518002630748,2025-10-05 03h23.22.646866 +0530,
-50,x,76,0,19,x,1,0.39809080000122776,None,19,0,76,0,,,,,185.74040690000038,,185.7355064000003,185.74040690000038,186.72713739999926,186.72713739999926,186.72713739999926,186.72713739999926,186.73337440000068,187.72645740000007,187.72645740000007,188.13046369999938,x,1,0.39809080000122776,None,,,,,417450,001,2025-10-05_03h23.15.756,Motor Learning,2024.2.4,143.68518002630748,2025-10-05 03h23.22.646866 +0530,
150,v,77,1,19,v,1,0.4100629000004119,None,19,1,77,1,,,,,188.13580449999972,,188.13083449999976,188.13580449999972,189.12192850000065,189.12192850000065,189.12192850000065,189.12192850000065,189.12875759999952,190.1217244999989,190.1217244999989,190.53334779999932,v,1,0.4100629000004119,None,,,,,417450,001,2025-10-05_03h23.15.756,Motor Learning,2024.2.4,143.68518002630748,2025-10-05 03h23.22.646866 +0530,
50,c,78,2,19,c,1,0.5324395999996341,None,19,2,78,2,,,,,190.53826209999897,,190.53373959999954,190.53826209999897,191.5242263,191.5242263,191.5242263,191.5242263,191.53131009999925,192.52438040000015,192.52438040000015,193.0600218999989,c,1,0.5324395999996341,None,,,,,417450,001,2025-10-05_03h23.15.756,Motor Learning,2024.2.4,143.68518002630748,2025-10-05 03h23.22.646866 +0530,
-150,z,79,3,19,z,1,0.30767200000082084,None,19,3,79,3,,,,,193.06568069999958,,193.06038679999983,193.06568069999958,194.0516351999995,194.0516351999995,194.0516351999995,194.0516351999995,194.05866539999988,195.05167939999956,195.05167939999956,195.36585530000048,z,1,0.30767200000082084,None,,,,,417450,001,2025-10-05_03h23.15.756,Motor Learning,2024.2.4,143.68518002630748,2025-10-05 03h23.22.646866 +0530,
-50,x,80,0,20,x,1,0.3828802000007272,None,20,0,80,0,,,,,195.37122269999963,,195.3661407999989,195.37122269999963,196.35739210000065,196.35739210000065,196.35739210000065,196.35739210000065,196.36402859999907,197.35695739999937,197.35695739999937,197.74669390000054,x,1,0.3828802000007272,None,,,,,417450,001,2025-10-05_03h23.15.756,Motor Learning,2024.2.4,143.68518002630748,2025-10-05 03h23.22.646866 +0530,
150,v,81,1,20,v,1,0.37096310000015364,None,20,1,81,1,,,,,197.75297019999925,,197.74695520000023,197.75297019999925,198.73865250000017,198.73865250000017,198.73865250000017,198.73865250000017,198.74554349999926,199.73873900000035,199.73873900000035,200.11457639999935,v,1,0.37096310000015364,None,,,,,417450,001,2025-10-05_03h23.15.756,Motor Learning,2024.2.4,143.68518002630748,2025-10-05 03h23.22.646866 +0530,
50,c,82,2,20,c,1,0.36526709999998275,None,20,2,82,2,,,,,200.12034959999983,,200.11502139999902,200.12034959999983,201.1065424999997,201.1065424999997,201.1065424999997,201.1065424999997,201.11342449999938,202.1063806000002,202.1063806000002,202.47535550000066,c,1,0.36526709999998275,None,,,,,417450,001,2025-10-05_03h23.15.756,Motor Learning,2024.2.4,143.68518002630748,2025-10-05 03h23.22.646866 +0530,
-150,z,83,3,20,z,1,0.27042570000048727,None,20,3,83,3,,,,,202.48118950000026,,202.47566150000057,202.48118950000026,203.46718359999977,203.46718359999977,203.46718359999977,203.46718359999977,203.47420740000052,204.46712990000015,204.46712990000015,204.7393145999995,z,1,0.27042570000048727,None,,,,,417450,001,2025-10-05_03h23.15.756,Motor Learning,2024.2.4,143.68518002630748,2025-10-05 03h23.22.646866 +0530,
-50,x,84,0,21,x,1,0.3991157000000385,None,21,0,84,0,,,,,204.74489019999965,,204.73959130000003,204.74489019999965,205.73079859999962,205.73079859999962,205.73079859999962,205.73079859999962,205.73777449999943,206.73072219999995,206.73072219999995,207.13462740000068,x,1,0.3991157000000385,None,,,,,417450,001,2025-10-05_03h23.15.756,Motor Learning,2024.2.4,143.68518002630748,2025-10-05 03h23.22.646866 +0530,
150,v,85,1,21,v,1,0.22398389999943902,None,21,1,85,1,,,,,207.1403377000006,,207.13533409999945,207.1403377000006,208.12629659999948,208.12629659999948,208.12629659999948,208.12629659999948,208.13325049999912,209.12629620000007,209.12629620000007,209.3573849000004,v,1,0.22398389999943902,None,,,,,417450,001,2025-10-05_03h23.15.756,Motor Learning,2024.2.4,143.68518002630748,2025-10-05 03h23.22.646866 +0530,
50,c,86,2,21,c,1,0.44139499999982945,None,21,2,86,2,,,,,209.3620759000005,,209.35770039999989,209.3620759000005,210.34799469999962,210.34799469999962,210.34799469999962,210.34799469999962,210.35508639999898,211.34800039999936,211.34800039999936,211.7934404000007,c,1,0.44139499999982945,None,,,,,417450,001,2025-10-05_03h23.15.756,Motor Learning,2024.2.4,143.68518002630748,2025-10-05 03h23.22.646866 +0530,
-150,z,87,3,21,z,1,0.32623940000121365,None,21,3,87,3,,,,,211.7993721999992,,211.793812599999,211.7993721999992,212.78541769999902,212.78541769999902,212.78541769999902,212.78541769999902,212.7923011999992,213.78521550000005,213.78521550000005,214.11317559999952,z,1,0.32623940000121365,None,,,,,417450,001,2025-10-05_03h23.15.756,Motor Learning,2024.2.4,143.68518002630748,2025-10-05 03h23.22.646866 +0530,
-50,x,88,0,22,x,1,0.4425228000000061,None,22,0,88,0,,,,,214.1185489999989,,214.11353099999906,214.1185489999989,215.10441779999928,215.10441779999928,215.10441779999928,215.10441779999928,215.11143529999936,216.10449589999916,216.10449589999916,216.54956149999998,x,1,0.4425228000000061,None,,,,,417450,001,2025-10-05_03h23.15.756,Motor Learning,2024.2.4,143.68518002630748,2025-10-05 03h23.22.646866 +0530,
150,v,89,1,22,v,1,0.31570279999868944,None,22,1,89,1,,,,,216.55561259999922,,216.54977839999992,216.55561259999922,217.5414385999993,217.5414385999993,217.5414385999993,217.5414385999993,217.54857189999893,218.5413850999994,218.5413850999994,218.86192660000052,v,1,0.31570279999868944,None,,,,,417450,001,2025-10-05_03h23.15.756,Motor Learning,2024.2.4,143.68518002630748,2025-10-05 03h23.22.646866 +0530,
50,c,90,2,22,c,1,0.4182864000013069,None,22,2,90,2,,,,,218.86771719999888,,218.86240820000057,218.86771719999888,219.85360159999982,219.85360159999982,219.85360159999982,219.85360159999982,219.86067709999952,220.85355329999948,220.85355329999948,221.27845329999946,c,1,0.4182864000013069,None,,,,,417450,001,2025-10-05_03h23.15.756,Motor Learning,2024.2.4,143.68518002630748,2025-10-05 03h23.22.646866 +0530,
-150,z,91,3,22,z,1,0.292736800000057,None,22,3,91,3,,,,,221.28399050000007,,221.2788743000001,221.28399050000007,222.27003499999955,222.27003499999955,222.27003499999955,222.27003499999955,222.27707790000022,223.2704417999994,223.2704417999994,223.56992589999936,z,1,0.292736800000057,None,,,,,417450,001,2025-10-05_03h23.15.756,Motor Learning,2024.2.4,143.68518002630748,2025-10-05 03h23.22.646866 +0530,
-50,x,92,0,23,x,1,0.4666566000014427,None,23,0,92,0,,,,,223.57531259999996,,223.57032760000038,223.57531259999996,224.5613897000003,224.5613897000003,224.5613897000003,224.5613897000003,224.56841969999914,225.56119639999997,225.56119639999997,226.03552060000038,x,1,0.4666566000014427,None,,,,,417450,001,2025-10-05_03h23.15.756,Motor Learning,2024.2.4,143.68518002630748,2025-10-05 03h23.22.646866 +0530,
150,v,93,1,23,v,1,0.5554904000000533,None,23,1,93,1,,,,,226.04023249999955,,226.03589269999975,226.04023249999955,227.02686899999935,227.02686899999935,227.02686899999935,227.02686899999935,227.03370750000067,228.02621329999965,228.02621329999965,228.58312730000034,v,1,0.5554904000000533,None,,,,,417450,001,2025-10-05_03h23.15.756,Motor Learning,2024.2.4,143.68518002630748,2025-10-05 03h23.22.646866 +0530,
50,c,94,2,23,c,1,0.7813654000001407,None,23,2,94,2,,,,,228.5884571000006,,228.58351109999967,228.5884571000006,229.57434830000057,229.57434830000057,229.57434830000057,229.57434830000057,229.58120339999914,230.57452960000046,230.57452960000046,231.3600652999994,c,1,0.7813654000001407,None,,,,,417450,001,2025-10-05_03h23.15.756,Motor Learning,2024.2.4,143.68518002630748,2025-10-05 03h23.22.646866 +0530,
-150,z,95,3,23,z,1,0.33030069999949774,None,23,3,95,3,,,,,231.36615549999988,,231.36035889999948,231.36615549999988,232.35162610000043,232.35162610000043,232.35162610000043,232.35162610000043,232.35867189999954,233.35154300000067,233.35154300000067,233.6859504999993,z,1,0.33030069999949774,None,,,,,417450,001,2025-10-05_03h23.15.756,Motor Learning,2024.2.4,143.68518002630748,2025-10-05 03h23.22.646866 +0530,
-50,x,96,0,24,x,1,0.28403140000045823,None,24,0,96,0,,,,,233.69224899999972,,233.6861642999993,233.69224899999972,234.67807119999998,234.67807119999998,234.67807119999998,234.67807119999998,234.68499619999966,235.6777000000002,235.6777000000002,235.96322959999998,x,1,0.28403140000045823,None,,,,,417450,001,2025-10-05_03h23.15.756,Motor Learning,2024.2.4,143.68518002630748,2025-10-05 03h23.22.646866 +0530,
150,v,97,1,24,v,1,0.25833290000082343,None,24,1,97,1,,,,,235.96916620000047,,235.9635333999995,235.96916620000047,236.95536820000052,236.95536820000052,236.95536820000052,236.95536820000052,236.96244689999912,237.95497239999895,237.95497239999895,238.22029549999934,v,1,0.25833290000082343,None,,,,,417450,001,2025-10-05_03h23.15.756,Motor Learning,2024.2.4,143.68518002630748,2025-10-05 03h23.22.646866 +0530,
50,c,98,2,24,c,1,0.35362610000083805,None,24,2,98,2,,,,,238.22595589999946,,238.22066099999938,238.22595589999946,239.21177989999887,239.21177989999887,239.21177989999887,239.21177989999887,239.21893029999956,240.21181239999896,240.21181239999896,240.5671242999997,c,1,0.35362610000083805,None,,,,,417450,001,2025-10-05_03h23.15.756,Motor Learning,2024.2.4,143.68518002630748,2025-10-05 03h23.22.646866 +0530,
-150,z,99,3,24,z,1,0.3274680999984412,None,24,3,99,3,,,,,240.5727762000006,,240.5675128999992,240.5727762000006,241.55885669999952,241.55885669999952,241.55885669999952,241.55885669999952,241.56568060000063,242.55852790000063,242.55852790000063,242.89309890000004,z,1,0.3274680999984412,None,,,,,417450,001,2025-10-05_03h23.15.756,Motor Learning,2024.2.4,143.68518002630748,2025-10-05 03h23.22.646866 +0530,
-50,x,100,0,25,x,1,0.2624015999990661,None,25,0,100,0,,,,,242.89904439999918,,242.89337159999923,242.89904439999918,243.88484909999897,243.88484909999897,243.88484909999897,243.88484909999897,243.8918818000002,244.88474010000027,244.88474010000027,245.1497545000002,x,1,0.2624015999990661,None,,,,,417450,001,2025-10-05_03h23.15.756,Motor Learning,2024.2.4,143.68518002630748,2025-10-05 03h23.22.646866 +0530,
150,v,101,1,25,v,1,0.2557527000008122,None,25,1,101,1,,,,,245.1554245999996,,245.15006410000024,245.1554245999996,246.14139889999933,246.14139889999933,246.14139889999933,246.14139889999933,246.14827460000015,247.14146979999896,247.14146979999896,247.39934709999943,v,1,0.2557527000008122,None,,,,,417450,001,2025-10-05_03h23.15.756,Motor Learning,2024.2.4,143.68518002630748,2025-10-05 03h23.22.646866 +0530,
50,c,102,2,25,c,1,0.2491384000004473,None,25,2,102,2,,,,,247.40516059999936,,247.4001449999996,247.40516059999936,248.39134199999899,248.39134199999899,248.39134199999899,248.39134199999899,248.39819220000027,249.391158299999,249.391158299999,249.64278439999907,c,1,0.2491384000004473,None,,,,,417450,001,2025-10-05_03h23.15.756,Motor Learning,2024.2.4,143.68518002630748,2025-10-05 03h23.22.646866 +0530,
-150,z,103,3,25,z,1,0.3301973000016005,None,25,3,103,3,,,,,249.64807219999966,,249.6431107999997,249.64807219999966,250.63386100000025,250.63386100000025,250.63386100000025,250.63386100000025,250.64074509999955,251.63361470000018,251.63361470000018,251.96809269999903,z,1,0.3301973000016005,None,,,,,417450,001,2025-10-05_03h23.15.756,Motor Learning,2024.2.4,143.68518002630748,2025-10-05 03h23.22.646866 +0530,
-50,x,104,0,26,x,1,0.4061784000004991,None,26,0,104,0,,,,,251.9737389999991,,251.96837249999953,251.9737389999991,252.95989820000068,252.95989820000068,252.95989820000068,252.95989820000068,252.9668598999997,253.95977879999919,253.95977879999919,254.3705848999998,x,1,0.4061784000004991,None,,,,,417450,001,2025-10-05_03h23.15.756,Motor Learning,2024.2.4,143.68518002630748,2025-10-05 03h23.22.646866 +0530,
150,v,105,1,26,v,1,0.5342275000002701,None,26,1,105,1,,,,,254.37638809999953,,254.3709617000004,254.37638809999953,255.36275889999888,255.36275889999888,255.36275889999888,255.36275889999888,255.36928179999995,256.3621562999997,256.3621562999997,256.8991461000005,v,1,0.5342275000002701,None,,,,,417450,001,2025-10-05_03h23.15.756,Motor Learning,2024.2.4,143.68518002630748,2025-10-05 03h23.22.646866 +0530,
50,c,106,2,26,c,1,0.41758200000003853,None,26,2,106,2,,,,,256.90396469999905,,256.8994643999995,256.90396469999905,257.8898621999997,257.8898621999997,257.8898621999997,257.8898621999997,257.8971385999994,258.8903534000001,258.8903534000001,259.31372890000057,c,1,0.41758200000003853,None,,,,,417450,001,2025-10-05_03h23.15.756,Motor Learning,2024.2.4,143.68518002630748,2025-10-05 03h23.22.646866 +0530,
-150,z,107,3,26,z,1,0.3237128999990091,None,26,3,107,3,,,,,259.3200405000007,,259.3140017000005,259.3200405000007,260.30583920000026,260.30583920000026,260.30583920000026,260.30583920000026,260.31286679999903,261.3059130999991,261.3059130999991,261.63366289999976,z,1,0.3237128999990091,None,,,,,417450,001,2025-10-05_03h23.15.756,Motor Learning,2024.2.4,143.68518002630748,2025-10-05 03h23.22.646866 +0530,
-50,x,108,0,27,x,1,0.25211009999839007,None,27,0,108,0,,,,,261.6391414999998,,261.63434889999917,261.6391414999998,262.62550960000044,262.62550960000044,262.62550960000044,262.62550960000044,262.6323195999994,263.6251181000007,263.6251181000007,263.88345599999957,x,1,0.25211009999839007,None,,,,,417450,001,2025-10-05_03h23.15.756,Motor Learning,2024.2.4,143.68518002630748,2025-10-05 03h23.22.646866 +0530,
150,v,109,1,27,v,1,0.9372383000008995,None,27,1,109,1,,,,,263.8892228000004,,263.8837960000001,263.8892228000004,264.8751711999994,264.8751711999994,264.8751711999994,264.8751711999994,264.8818004999994,265.87463149999894,265.87463149999894,266.81409539999913,v,1,0.9372383000008995,None,,,,,417450,001,2025-10-05_03h23.15.756,Motor Learning,2024.2.4,143.68518002630748,2025-10-05 03h23.22.646866 +0530,
50,c,110,2,27,c,1,0.44450140000117244,None,27,2,110,2,,,,,266.8190469000001,,266.8145289999993,266.8190469000001,267.8048937000003,267.8048937000003,267.8048937000003,267.8048937000003,267.81181950000064,268.80485919999956,268.80485919999956,269.25071240000034,c,1,0.44450140000117244,None,,,,,417450,001,2025-10-05_03h23.15.756,Motor Learning,2024.2.4,143.68518002630748,2025-10-05 03h23.22.646866 +0530,
-150,z,111,3,27,z,1,0.3532331000005797,None,27,3,111,3,,,,,269.25599429999966,,269.2510387000002,269.25599429999966,270.2423075000006,270.2423075000006,270.2423075000006,270.2423075000006,270.2492536999998,271.2420977999991,271.2420977999991,271.5971477000003,z,1,0.3532331000005797,None,,,,,417450,001,2025-10-05_03h23.15.756,Motor Learning,2024.2.4,143.68518002630748,2025-10-05 03h23.22.646866 +0530,
-50,x,112,0,28,x,1,0.28884459999972023,None,28,0,112,0,,,,,271.6029682999997,,271.5975142999996,271.6029682999997,272.5890935000007,272.5890935000007,272.5890935000007,272.5890935000007,272.59597720000056,273.5888288999995,273.5888288999995,273.88163840000016,x,1,0.28884459999972023,None,,,,,417450,001,2025-10-05_03h23.15.756,Motor Learning,2024.2.4,143.68518002630748,2025-10-05 03h23.22.646866 +0530,
150,v,113,1,28,v,1,0.44151590000001306,None,28,1,113,1,,,,,273.88796829999956,,273.8819509999994,273.88796829999956,274.8733892,274.8733892,274.8733892,274.8733892,274.88028999999915,275.87381189999905,275.87381189999905,276.3184543999996,v,1,0.44151590000001306,None,,,,,417450,001,2025-10-05_03h23.15.756,Motor Learning,2024.2.4,143.68518002630748,2025-10-05 03h23.22.646866 +0530,
50,c,114,2,28,c,1,0.29526130000158446,None,28,2,114,2,,,,,276.3244089999989,,276.3188018000001,276.3244089999989,277.31064999999944,277.31064999999944,277.31064999999944,277.31064999999944,277.31767240000045,278.31061279999994,278.31061279999994,278.6102460000002,c,1,0.29526130000158446,None,,,,,417450,001,2025-10-05_03h23.15.756,Motor Learning,2024.2.4,143.68518002630748,2025-10-05 03h23.22.646866 +0530,
-150,z,115,3,28,z,1,0.31437410000035015,None,28,3,115,3,,,,,278.6158661999998,,278.61065679999956,278.6158661999998,279.60212219999994,279.60212219999994,279.60212219999994,279.60212219999994,279.60885469999994,280.6017995000002,280.6017995000002,280.92230240000026,z,1,0.31437410000035015,None,,,,,417450,001,2025-10-05_03h23.15.756,Motor Learning,2024.2.4,143.68518002630748,2025-10-05 03h23.22.646866 +0530,
-50,x,116,0,29,x,1,0.4333749000015814,None,29,0,116,0,,,,,280.9280125000005,,280.92259530000047,280.9280125000005,281.91410779999933,281.91410779999933,281.91410779999933,281.91410779999933,281.9209517999989,282.9140626999997,282.9140626999997,283.3529691999993,x,1,0.4333749000015814,None,,,,,417450,001,2025-10-05_03h23.15.756,Motor Learning,2024.2.4,143.68518002630748,2025-10-05 03h23.22.646866 +0530,
150,v,117,1,29,v,1,0.36306209999929706,None,29,1,117,1,,,,,283.3581764999999,,283.3534254999995,283.3581764999999,284.3443215999996,284.3443215999996,284.3443215999996,284.3443215999996,284.3512630000005,285.3442109000007,285.3442109000007,285.7139083000002,v,1,0.36306209999929706,None,,,,,417450,001,2025-10-05_03h23.15.756,Motor Learning,2024.2.4,143.68518002630748,2025-10-05 03h23.22.646866 +0530,
50,c,118,2,29,c,1,0.41550660000029893,None,29,2,118,2,,,,,285.7190021000006,,285.7143032999993,285.7190021000006,286.70522150000033,286.70522150000033,286.70522150000033,286.70522150000033,286.71227089999957,287.7050368,287.7050368,288.1227199999994,c,1,0.41550660000029893,None,,,,,417450,001,2025-10-05_03h23.15.756,Motor Learning,2024.2.4,143.68518002630748,2025-10-05 03h23.22.646866 +0530,
-150,z,119,3,29,z,1,0.27603540000018256,None,29,3,119,3,,,,,288.1282721000007,,288.1230761000006,288.1282721000007,289.11440050000056,289.11440050000056,289.11440050000056,289.11440050000056,289.1213136999995,290.11418740000045,290.11418740000045,290.3940113999997,z,1,0.27603540000018256,None,,,,,417450,001,2025-10-05_03h23.15.756,Motor Learning,2024.2.4,143.68518002630748,2025-10-05 03h23.22.646866 +0530,
-50,x,120,0,30,x,1,0.2588706999995338,None,30,0,120,0,,,,,290.39871909999965,,290.3943340000005,290.39871909999965,291.386208599999,291.386208599999,291.386208599999,291.386208599999,291.39167330000055,292.3847227999995,292.3847227999995,292.6496341999991,x,1,0.2588706999995338,None,,,,,417450,001,2025-10-05_03h23.15.756,Motor Learning,2024.2.4,143.68518002630748,2025-10-05 03h23.22.646866 +0530,
150,v,121,1,30,v,1,0.25182200000017474,None,30,1,121,1,,,,,292.6553684999999,,292.6500782999992,292.6553684999999,293.6413954999989,293.6413954999989,293.6413954999989,293.6413954999989,293.64874229999987,294.6413995999992,294.6413995999992,294.8991934000005,v,1,0.25182200000017474,None,,,,,417450,001,2025-10-05_03h23.15.756,Motor Learning,2024.2.4,143.68518002630748,2025-10-05 03h23.22.646866 +0530,
50,c,122,2,30,c,1,0.454328899999382,None,30,2,122,2,,,,,294.904996199999,,294.89945609999995,294.904996199999,295.89184679999926,295.89184679999926,295.89184679999926,295.89184679999926,295.898884799999,296.8909693000005,296.8909693000005,297.3513060000005,c,1,0.454328899999382,None,,,,,417450,001,2025-10-05_03h23.15.756,Motor Learning,2024.2.4,143.68518002630748,2025-10-05 03h23.22.646866 +0530,
-150,z,123,3,30,z,1,0.5711917000007816,None,30,3,123,3,,,,,297.3565433999993,,297.3517546999992,297.3565433999993,298.3422824999998,298.3422824999998,298.3422824999998,298.3422824999998,298.34918520000065,299.34202600000026,299.34202600000026,299.9192562999997,z,1,0.5711917000007816,None,,,,,417450,001,2025-10-05_03h23.15.756,Motor Learning,2024.2.4,143.68518002630748,2025-10-05 03h23.22.646866 +0530,
-50,x,124,0,31,x,1,0.7807183000004443,None,31,0,124,0,,,,,299.92509000000064,,299.9195958,299.92509000000064,300.9115034999995,300.9115034999995,300.9115034999995,300.9115034999995,300.91846839999926,301.9111312999994,301.9111312999994,302.69695370000045,x,1,0.7807183000004443,None,,,,,417450,001,2025-10-05_03h23.15.756,Motor Learning,2024.2.4,143.68518002630748,2025-10-05 03h23.22.646866 +0530,
150,v,125,1,31,v,1,0.34685199999876204,None,31,1,125,1,,,,,302.7025027999989,,302.6972762000005,302.7025027999989,303.68854959999953,303.68854959999953,303.68854959999953,303.68854959999953,303.69584600000053,304.68853800000034,304.68853800000034,305.03780469999947,v,1,0.34685199999876204,None,,,,,417450,001,2025-10-05_03h23.15.756,Motor Learning,2024.2.4,143.68518002630748,2025-10-05 03h23.22.646866 +0530,
50,c,126,2,31,c,1,0.2954726000007213,None,31,2,126,2,,,,,305.0433314999991,,305.0381121999999,305.0433314999991,306.0285654999989,306.0285654999989,306.0285654999989,306.0285654999989,306.03546950000054,307.0281507999989,307.0281507999989,307.3273145999992,c,1,0.2954726000007213,None,,,,,417450,001,2025-10-05_03h23.15.756,Motor Learning,2024.2.4,143.68518002630748,2025-10-05 03h23.22.646866 +0530,
-150,z,127,3,31,z,1,0.29619739999907324,None,31,3,127,3,,,,,307.3339156000002,,307.3274954999997,307.3339156000002,308.3196315999994,308.3196315999994,308.3196315999994,308.3196315999994,308.326677699999,309.31961450000017,309.31961450000017,309.62004159999924,z,1,0.29619739999907324,None,,,,,417450,001,2025-10-05_03h23.15.756,Motor Learning,2024.2.4,143.68518002630748,2025-10-05 03h23.22.646866 +0530,
-50,x,128,0,32,x,1,0.2868668000010075,None,32,0,128,0,,,,,309.62537879999945,,309.62034610000046,309.62537879999945,310.6113150000001,310.6113150000001,310.6113150000001,310.6113150000001,310.6182895999991,311.611395599999,311.611395599999,311.9034044,x,1,0.2868668000010075,None,,,,,417450,001,2025-10-05_03h23.15.756,Motor Learning,2024.2.4,143.68518002630748,2025-10-05 03h23.22.646866 +0530,
150,v,129,1,32,v,1,0.8554698999996617,None,32,1,129,1,,,,,311.9095617999992,,311.90364709999994,311.9095617999992,312.8955769000004,312.8955769000004,312.8955769000004,312.8955769000004,312.9031610999991,313.8957711999992,313.8957711999992,314.7577316000006,v,1,0.8554698999996617,None,,,,,417450,001,2025-10-05_03h23.15.756,Motor Learning,2024.2.4,143.68518002630748,2025-10-05 03h23.22.646866 +0530,
50,c,130,2,32,c,1,0.3502318999999261,None,32,2,130,2,,,,,314.7634259999995,,314.758393099999,314.7634259999995,315.7495534999998,315.7495534999998,315.7495534999998,315.7495534999998,315.7565080000004,316.74918609999986,316.74918609999986,317.1040997,c,1,0.3502318999999261,None,,,,,417450,001,2025-10-05_03h23.15.756,Motor Learning,2024.2.4,143.68518002630748,2025-10-05 03h23.22.646866 +0530,
-150,z,131,3,32,z,1,0.3244135000004462,None,32,3,131,3,,,,,317.1106603999997,,317.1043998999994,317.1106603999997,318.0962899999995,318.0962899999995,318.0962899999995,318.0962899999995,318.10330599999907,319.0961993000001,319.0961993000001,319.4239226999998,z,1,0.3244135000004462,None,,,,,417450,001,2025-10-05_03h23.15.756,Motor Learning,2024.2.4,143.68518002630748,2025-10-05 03h23.22.646866 +0530,
-50,x,132,0,33,x,1,0.6619575000004261,None,33,0,132,0,,,,,319.42953099999977,,319.4242549999999,319.42953099999977,320.4155568999995,320.4155568999995,320.4155568999995,320.4155568999995,320.422429799999,321.41551789999903,321.41551789999903,322.08344209999996,x,1,0.6619575000004261,None,,,,,417450,001,2025-10-05_03h23.15.756,Motor Learning,2024.2.4,143.68518002630748,2025-10-05 03h23.22.646866 +0530,
150,v,133,1,33,v,1,0.2691744000003382,None,33,1,133,1,,,,,322.08888490000027,,322.083783099999,322.08888490000027,323.0748702000001,323.0748702000001,323.0748702000001,323.0748702000001,323.081752099999,324.07469689999925,324.07469689999925,324.34632299999976,v,1,0.2691744000003382,None,,,,,417450,001,2025-10-05_03h23.15.756,Motor Learning,2024.2.4,143.68518002630748,2025-10-05 03h23.22.646866 +0530,
50,c,134,2,33,c,1,0.2857517000011285,None,33,2,134,2,,,,,324.35248239999964,,324.3466174999994,324.35248239999964,325.33857179999904,325.33857179999904,325.33857179999904,325.33857179999904,325.3459478999994,326.33826749999935,326.33826749999935,326.6311843000003,c,1,0.2857517000011285,None,,,,,417450,001,2025-10-05_03h23.15.756,Motor Learning,2024.2.4,143.68518002630748,2025-10-05 03h23.22.646866 +0530,
-150,z,135,3,33,z,1,0.24847640000007232,None,33,3,135,3,,,,,326.6368574999997,,326.6315324999996,326.6368574999997,327.6228658,327.6228658,327.6228658,327.6228658,327.62973819999934,328.62264499999947,328.62264499999947,328.8743240999993,z,1,0.24847640000007232,None,,,,,417450,001,2025-10-05_03h23.15.756,Motor Learning,2024.2.4,143.68518002630748,2025-10-05 03h23.22.646866 +0530,
-50,x,136,0,34,x,1,0.24172949999956472,None,34,0,136,0,,,,,328.8794036999989,,328.8746625999993,328.8794036999989,329.8654913999999,329.8654913999999,329.8654913999999,329.8654913999999,329.87244760000067,330.8654882999999,330.8654882999999,331.1097202000001,x,1,0.24172949999956472,None,,,,,417450,001,2025-10-05_03h23.15.756,Motor Learning,2024.2.4,143.68518002630748,2025-10-05 03h23.22.646866 +0530,
150,v,137,1,34,v,1,0.30627780000031635,None,34,1,137,1,,,,,331.1152624000006,,331.11005809999915,331.1152624000006,332.1013791999994,332.1013791999994,332.1013791999994,332.1013791999994,332.1081850999999,333.1014955999999,333.1014955999999,333.41514199999983,v,1,0.30627780000031635,None,,,,,417450,001,2025-10-05_03h23.15.756,Motor Learning,2024.2.4,143.68518002630748,2025-10-05 03h23.22.646866 +0530,
50,c,138,2,34,c,1,0.28915649999908055,None,34,2,138,2,,,,,333.42122240000026,,333.4155902000002,333.42122240000026,334.4064749999998,334.4064749999998,334.4064749999998,334.4064749999998,334.41343550000056,335.40630190000047,335.40630190000047,335.6994770000001,c,1,0.28915649999908055,None,,,,,417450,001,2025-10-05_03h23.15.756,Motor Learning,2024.2.4,143.68518002630748,2025-10-05 03h23.22.646866 +0530,
-150,z,139,3,34,z,1,0.5162986999985151,None,34,3,139,3,,,,,335.7049028000001,,335.69990730000063,335.7049028000001,336.6908843000001,336.6908843000001,336.6908843000001,336.6908843000001,336.69785500000035,337.6914018000007,337.6914018000007,338.21244560000014,z,1,0.5162986999985151,None,,,,,417450,001,2025-10-05_03h23.15.756,Motor Learning,2024.2.4,143.68518002630748,2025-10-05 03h23.22.646866 +0530,
-50,x,140,0,35,x,1,0.2987718999993376,None,35,0,140,0,,,,,338.218425699999,,338.2127808000005,338.218425699999,339.2048216000003,339.2048216000003,339.2048216000003,339.2048216000003,339.2116165999996,340.2043847999994,340.2043847999994,340.5057734000002,x,1,0.2987718999993376,None,,,,,417450,001,2025-10-05_03h23.15.756,Motor Learning,2024.2.4,143.68518002630748,2025-10-05 03h23.22.646866 +0530,
150,v,141,1,35,v,1,0.4516180999999051,None,35,1,141,1,,,,,340.5098462999995,,340.5061549000002,340.5098462999995,341.49582629999895,341.49582629999895,341.49582629999895,341.49582629999895,341.50268779999897,342.49572380000063,342.49572380000063,342.9488949000006,v,1,0.4516180999999051,None,,,,,417450,001,2025-10-05_03h23.15.756,Motor Learning,2024.2.4,143.68518002630748,2025-10-05 03h23.22.646866 +0530,
50,c,142,2,35,c,1,0.48972869999852264,None,35,2,142,2,,,,,342.95380079999995,,342.94915070000025,342.95380079999995,343.93968850000056,343.93968850000056,343.93968850000056,343.93968850000056,343.94692269999905,344.9396459999989,344.9396459999989,345.43418910000037,c,1,0.48972869999852264,None,,,,,417450,001,2025-10-05_03h23.15.756,Motor Learning,2024.2.4,143.68518002630748,2025-10-05 03h23.22.646866 +0530,
-150,z,143,3,35,z,1,0.30825430000004417,None,35,3,143,3,,,,,345.4396080000006,,345.43458269999974,345.4396080000006,346.4257863999992,346.4257863999992,346.4257863999992,346.4257863999992,346.43270660000053,347.4253236000004,347.4253236000004,347.7387829999989,z,1,0.30825430000004417,None,,,,,417450,001,2025-10-05_03h23.15.756,Motor Learning,2024.2.4,143.68518002630748,2025-10-05 03h23.22.646866 +0530,
-50,x,144,0,36,x,1,0.2630814999993163,None,36,0,144,0,,,,,347.74474929999997,,347.73911959999896,347.74474929999997,348.7307593000005,348.7307593000005,348.7307593000005,348.7307593000005,348.73767939999925,349.7306812000006,349.7306812000006,349.99632589999965,x,1,0.2630814999993163,None,,,,,417450,001,2025-10-05_03h23.15.756,Motor Learning,2024.2.4,143.68518002630748,2025-10-05 03h23.22.646866 +0530,
150,v,145,1,36,v,1,0.3207082000008086,None,36,1,145,1,,,,,350.0016804000006,,349.99663130000044,350.0016804000006,350.9872341999999,350.9872341999999,350.9872341999999,350.9872341999999,350.9941696999995,351.9873140999989,351.9873140999989,352.3146056000005,v,1,0.3207082000008086,None,,,,,417450,001,2025-10-05_03h23.15.756,Motor Learning,2024.2.4,143.68518002630748,2025-10-05 03h23.22.646866 +0530,
50,c,146,2,36,c,1,0.349594999999681,None,36,2,146,2,,,,,352.3203670999992,,352.3148844999996,352.3203670999992,353.30658760000006,353.30658760000006,353.30658760000006,353.30658760000006,353.3133378000002,354.3062764999995,354.3062764999995,354.66165329999967,c,1,0.349594999999681,None,,,,,417450,001,2025-10-05_03h23.15.756,Motor Learning,2024.2.4,143.68518002630748,2025-10-05 03h23.22.646866 +0530,
-150,z,147,3,36,z,1,0.3480651999998372,None,36,3,147,3,,,,,354.66759719999936,,354.6619807999996,354.66759719999936,355.65326950000053,355.65326950000053,355.65326950000053,355.65326950000053,355.66021,356.65314769999895,356.65314769999895,357.00817579999966,z,1,0.3480651999998372,None,,,,,417450,001,2025-10-05_03h23.15.756,Motor Learning,2024.2.4,143.68518002630748,2025-10-05 03h23.22.646866 +0530,
-50,x,148,0,37,x,1,0.3271236000000499,None,37,0,148,0,,,,,357.0140811000001,,357.00846739999906,357.0140811000001,358.00017599999956,358.00017599999956,358.00017599999956,358.00017599999956,358.0072547,359.00009689999933,359.00009689999933,359.3342833000006,x,1,0.3271236000000499,None,,,,,417450,001,2025-10-05_03h23.15.756,Motor Learning,2024.2.4,143.68518002630748,2025-10-05 03h23.22.646866 +0530,
150,v,149,1,37,v,1,0.24091649999900255,None,37,1,149,1,,,,,359.3402944999998,,359.3345320999997,359.3402944999998,360.32637539999996,360.32637539999996,360.32637539999996,360.32637539999996,360.3332157999994,361.32660659999965,361.32660659999965,361.57151650000014,v,1,0.24091649999900255,None,,,,,417450,001,2025-10-05_03h23.15.756,Motor Learning,2024.2.4,143.68518002630748,2025-10-05 03h23.22.646866 +0530,
50,c,150,2,37,c,1,0.24792080000042915,None,37,2,150,2,,,,,361.5759564,,361.5721360000007,361.5759564,362.5622270999993,362.5622270999993,362.5622270999993,362.5622270999993,362.5690341999998,363.5618979999999,363.5618979999999,363.81291409999903,c,1,0.24792080000042915,None,,,,,417450,001,2025-10-05_03h23.15.756,Motor Learning,2024.2.4,143.68518002630748,2025-10-05 03h23.22.646866 +0530,
-150,z,151,3,37,z,1,0.32224739999946905,None,37,3,151,3,,,,,363.8190949,,363.8132143999992,363.8190949,364.805164899999,364.805164899999,364.805164899999,364.805164899999,364.8116009999994,365.80482069999925,365.80482069999925,366.13272809999944,z,1,0.32224739999946905,None,,,,,417450,001,2025-10-05_03h23.15.756,Motor Learning,2024.2.4,143.68518002630748,2025-10-05 03h23.22.646866 +0530,
-50,x,152,0,38,x,1,0.22735180000017863,None,38,0,152,0,,,,,366.13819180000064,,366.1332514000005,366.13819180000064,367.1241503000001,367.1241503000001,367.1241503000001,367.1241503000001,367.1315278000002,368.1237111999999,368.1237111999999,368.3539631000003,x,1,0.22735180000017863,None,,,,,417450,001,2025-10-05_03h23.15.756,Motor Learning,2024.2.4,143.68518002630748,2025-10-05 03h23.22.646866 +0530,
150,v,153,1,38,v,1,0.31104380000033416,None,38,1,153,1,,,,,368.36021880000044,,368.3542441999998,368.36021880000044,369.34610109999994,369.34610109999994,369.34610109999994,369.34610109999994,369.35300540000026,370.3461944999999,370.3461944999999,370.65915680000035,v,1,0.31104380000033416,None,,,,,417450,001,2025-10-05_03h23.15.756,Motor Learning,2024.2.4,143.68518002630748,2025-10-05 03h23.22.646866 +0530,
50,c,154,2,38,c,1,0.2806956000003993,None,38,2,154,2,,,,,370.66483569999946,,370.6597886999989,370.66483569999946,371.6510135999997,371.6510135999997,371.6510135999997,371.6510135999997,371.65790410000045,372.65096730000005,372.65096730000005,372.9368383000001,c,1,0.2806956000003993,None,,,,,417450,001,2025-10-05_03h23.15.756,Motor Learning,2024.2.4,143.68518002630748,2025-10-05 03h23.22.646866 +0530,
-150,z,155,3,38,z,1,0.3015092999994522,None,38,3,155,3,,,,,372.94253539999954,,372.9371811000001,372.94253539999954,373.92845189999935,373.92845189999935,373.92845189999935,373.92845189999935,373.93545559999984,374.9286119999997,374.9286119999997,375.23482709999917,z,1,0.3015092999994522,None,,,,,417450,001,2025-10-05_03h23.15.756,Motor Learning,2024.2.4,143.68518002630748,2025-10-05 03h23.22.646866 +0530,
-50,x,156,0,39,x,1,0.3206161999987671,None,39,0,156,0,,,,,375.2407622999999,,375.2351576000001,375.2407622999999,376.22663900000043,376.22663900000043,376.22663900000043,376.22663900000043,376.2336319999995,377.22720990000016,377.22720990000016,377.5539957000001,x,1,0.3206161999987671,None,,,,,417450,001,2025-10-05_03h23.15.756,Motor Learning,2024.2.4,143.68518002630748,2025-10-05 03h23.22.646866 +0530,
150,v,157,1,39,v,1,0.2740386999994371,None,39,1,157,1,,,,,377.5599344000002,,377.5543722000002,377.5599344000002,378.54581139999937,378.54581139999937,378.54581139999937,378.54581139999937,378.5526570000002,379.54562559999977,379.54562559999977,379.8245829000007,v,1,0.2740386999994371,None,,,,,417450,001,2025-10-05_03h23.15.756,Motor Learning,2024.2.4,143.68518002630748,2025-10-05 03h23.22.646866 +0530,
50,c,158,2,39,c,1,0.2239620999989711,None,39,2,158,2,,,,,379.8303538,,379.8249147000006,379.8303538,380.8165303000005,380.8165303000005,380.8165303000005,380.8165303000005,380.8234040999996,381.8160208999998,381.8160208999998,382.0466135000006,c,1,0.2239620999989711,None,,,,,417450,001,2025-10-05_03h23.15.756,Motor Learning,2024.2.4,143.68518002630748,2025-10-05 03h23.22.646866 +0530,
-150,z,159,3,39,z,1,0.26961239999945974,None,39,3,159,3,,,,,382.0524390999999,,382.0469073000004,382.0524390999999,383.0383206000006,383.0383206000006,383.0383206000006,383.0383206000006,383.04532499999914,384.03836090000004,384.03836090000004,384.3099294000003,z,1,0.26961239999945974,None,,,,,417450,001,2025-10-05_03h23.15.756,Motor Learning,2024.2.4,143.68518002630748,2025-10-05 03h23.22.646866 +0530,
-50,x,160,0,40,x,1,0.23361730000033276,None,40,0,160,0,,,,,384.31657599999926,,384.31019079999896,384.31657599999926,385.3017407999996,385.3017407999996,385.3017407999996,385.3017407999996,385.30858850000004,386.3026783999994,386.3026783999994,386.5391288999999,x,1,0.23361730000033276,None,,,,,417450,001,2025-10-05_03h23.15.756,Motor Learning,2024.2.4,143.68518002630748,2025-10-05 03h23.22.646866 +0530,
150,v,161,1,40,v,1,0.25354409999999916,None,40,1,161,1,,,,,386.5446381999991,,386.53955440000027,386.5446381999991,387.5307496000005,387.5307496000005,387.5307496000005,387.5307496000005,387.53761889999987,388.5305879000007,388.5305879000007,388.78829529999894,v,1,0.25354409999999916,None,,,,,417450,001,2025-10-05_03h23.15.756,Motor Learning,2024.2.4,143.68518002630748,2025-10-05 03h23.22.646866 +0530,
50,c,162,2,40,c,1,0.32750599999963015,None,40,2,162,2,,,,,388.7943452999989,,388.7886374999998,388.7943452999989,389.78037869999935,389.78037869999935,389.78037869999935,389.78037869999935,389.7871594999997,390.7801251000001,390.7801251000001,391.1145634000004,c,1,0.32750599999963015,None,,,,,417450,001,2025-10-05_03h23.15.756,Motor Learning,2024.2.4,143.68518002630748,2025-10-05 03h23.22.646866 +0530,
-150,z,163,3,40,z,1,0.46462199999950826,None,40,3,163,3,,,,,391.1205088000006,,391.1148030000004,391.1205088000006,392.1063137000001,392.1063137000001,392.1063137000001,392.1063137000001,392.1134602000002,393.1068190999995,393.1068190999995,393.5735291000001,z,1,0.46462199999950826,None,,,,,417450,001,2025-10-05_03h23.15.756,Motor Learning,2024.2.4,143.68518002630748,2025-10-05 03h23.22.646866 +0530,
-50,x,164,0,41,x,1,0.24060800000006566,None,41,0,164,0,,,,,393.5781834999998,,393.5738875999996,393.5781834999998,394.5643899000006,394.5643899000006,394.5643899000006,394.5643899000006,394.57127240000045,395.56469619999916,395.56469619999916,395.80847840000024,x,1,0.24060800000006566,None,,,,,417450,001,2025-10-05_03h23.15.756,Motor Learning,2024.2.4,143.68518002630748,2025-10-05 03h23.22.646866 +0530,
150,v,165,1,41,v,1,0.26565320000008796,None,41,1,165,1,,,,,395.8140524999999,,395.80881709999994,395.8140524999999,396.8004734999995,396.8004734999995,396.8004734999995,396.8004734999995,396.80716550000034,397.8000754000004,397.8000754000004,398.0717645000004,v,1,0.26565320000008796,None,,,,,417450,001,2025-10-05_03h23.15.756,Motor Learning,2024.2.4,143.68518002630748,2025-10-05 03h23.22.646866 +0530,
50,c,166,2,41,c,1,0.446208100000149,None,41,2,166,2,,,,,398.0780864999997,,398.07204040000033,398.0780864999997,399.06375350000053,399.06375350000053,399.06375350000053,399.06375350000053,399.07070620000013,400.06348119999893,400.06348119999893,400.51565029999983,c,1,0.446208100000149,None,,,,,417450,001,2025-10-05_03h23.15.756,Motor Learning,2024.2.4,143.68518002630748,2025-10-05 03h23.22.646866 +0530,
-150,z,167,3,41,z,1,0.3049277999998594,None,41,3,167,3,,,,,400.5217400999991,,400.51595929999894,400.5217400999991,401.5076883999991,401.5076883999991,401.5076883999991,401.5076883999991,401.5146282000005,402.5076659000006,402.5076659000006,402.8145912,z,1,0.3049277999998594,None,,,,,417450,001,2025-10-05_03h23.15.756,Motor Learning,2024.2.4,143.68518002630748,2025-10-05 03h23.22.646866 +0530,
-50,x,168,0,42,x,1,0.47534560000167403,None,42,0,168,0,,,,,402.82010269999955,,402.81493109999974,402.82010269999955,403.8062442999999,403.8062442999999,403.8062442999999,403.8062442999999,403.81307449999986,404.80595410000024,404.80595410000024,405.28582169999936,x,1,0.47534560000167403,None,,,,,417450,001,2025-10-05_03h23.15.756,Motor Learning,2024.2.4,143.68518002630748,2025-10-05 03h23.22.646866 +0530,
150,v,169,1,42,v,1,0.2793455000009999,None,42,1,169,1,,,,,405.2918482999994,,405.2861223,405.2918482999994,406.2780509000004,406.2780509000004,406.2780509000004,406.2780509000004,406.2848371,407.27806670000064,407.27806670000064,407.5637229999993,v,1,0.2793455000009999,None,,,,,417450,001,2025-10-05_03h23.15.756,Motor Learning,2024.2.4,143.68518002630748,2025-10-05 03h23.22.646866 +0530,
50,c,170,2,42,c,1,0.49174630000015895,None,42,2,170,2,,,,,407.5694122999994,,407.56410420000066,407.5694122999994,408.55532610000046,408.55532610000046,408.55532610000046,408.55532610000046,408.5623512000002,409.55511750000005,409.55511750000005,410.04974199999924,c,1,0.49174630000015895,None,,,,,417450,001,2025-10-05_03h23.15.756,Motor Learning,2024.2.4,143.68518002630748,2025-10-05 03h23.22.646866 +0530,
-150,z,171,3,42,z,1,0.2243285000004107,None,42,3,171,3,,,,,410.0550213000006,,410.05022669999926,410.0550213000006,411.041348499999,411.041348499999,411.041348499999,411.041348499999,411.04796290000013,412.04090890000043,412.04090890000043,412.27114249999977,z,1,0.2243285000004107,None,,,,,417450,001,2025-10-05_03h23.15.756,Motor Learning,2024.2.4,143.68518002630748,2025-10-05 03h23.22.646866 +0530,
-50,x,172,0,43,x,1,0.3875518999993801,None,43,0,172,0,,,,,412.27702209999916,,412.2714909999995,412.27702209999916,413.2628745000002,413.2628745000002,413.2628745000002,413.2628745000002,413.2699384999996,414.26292699999976,414.26292699999976,414.65310189999946,x,1,0.3875518999993801,None,,,,,417450,001,2025-10-05_03h23.15.756,Motor Learning,2024.2.4,143.68518002630748,2025-10-05 03h23.22.646866 +0530,
150,v,173,1,43,v,1,0.37919589999910386,None,43,1,173,1,,,,,414.6586494999992,,414.6533591999996,414.6586494999992,415.64471349999985,415.64471349999985,415.64471349999985,415.64471349999985,415.6517177000005,416.64484059999995,416.64484059999995,417.02755699999943,v,1,0.37919589999910386,None,,,,,417450,001,2025-10-05_03h23.15.756,Motor Learning,2024.2.4,143.68518002630748,2025-10-05 03h23.22.646866 +0530,
50,c,174,2,43,c,1,0.2758395999990171,None,43,2,174,2,,,,,417.0332656999999,,417.0279000999999,417.0332656999999,418.0194591999989,418.0194591999989,418.0194591999989,418.0194591999989,418.02713269999913,419.0192265000005,419.0192265000005,419.2980131000004,c,1,0.2758395999990171,None,,,,,417450,001,2025-10-05_03h23.15.756,Motor Learning,2024.2.4,143.68518002630748,2025-10-05 03h23.22.646866 +0530,
-150,z,175,3,43,z,1,0.2788540000001376,None,43,3,175,3,,,,,419.3040363,,419.2982558999993,419.3040363,420.2898886999992,420.2898886999992,420.2898886999992,420.2898886999992,420.2968839999994,421.2896560999998,421.2896560999998,421.57577029999993,z,1,0.2788540000001376,None,,,,,417450,001,2025-10-05_03h23.15.756,Motor Learning,2024.2.4,143.68518002630748,2025-10-05 03h23.22.646866 +0530,
-50,x,176,0,44,x,1,0.2708672000007937,None,44,0,176,0,,,,,421.58125889999974,,421.57625240000016,421.58125889999974,422.5675487999997,422.5675487999997,422.5675487999997,422.5675487999997,422.5742324999992,423.56742999999915,423.56742999999915,423.8452701999995,x,1,0.2708672000007937,None,,,,,417450,001,2025-10-05_03h23.15.756,Motor Learning,2024.2.4,143.68518002630748,2025-10-05 03h23.22.646866 +0530,
150,v,177,1,44,v,1,0.25825740000072983,None,44,1,177,1,,,,,423.85166480000044,,423.8455479000004,423.85166480000044,424.838167599999,424.838167599999,424.838167599999,424.838167599999,424.8446738999992,425.8375557999989,425.8375557999989,426.10219270000016,v,1,0.25825740000072983,None,,,,,417450,001,2025-10-05_03h23.15.756,Motor Learning,2024.2.4,143.68518002630748,2025-10-05 03h23.22.646866 +0530,
50,c,178,2,44,c,1,0.26162850000036997,None,44,2,178,2,,,,,426.10832329999903,,426.1024765000002,426.10832329999903,427.09436319999986,427.09436319999986,427.09436319999986,427.09436319999986,427.1020317000002,428.09430260000045,428.09430260000045,428.35877040000014,c,1,0.26162850000036997,None,,,,,417450,001,2025-10-05_03h23.15.756,Motor Learning,2024.2.4,143.68518002630748,2025-10-05 03h23.22.646866 +0530,
-150,z,179,3,44,z,1,0.2636997000008705,None,44,3,179,3,,,,,428.3647196999991,,428.3589711000004,428.3647196999991,429.35100430000057,429.35100430000057,429.35100430000057,429.35100430000057,429.35852329999943,430.3509467999993,430.3509467999993,430.6168966999994,z,1,0.2636997000008705,None,,,,,417450,001,2025-10-05_03h23.15.756,Motor Learning,2024.2.4,143.68518002630748,2025-10-05 03h23.22.646866 +0530,
-50,x,180,0,45,x,1,0.2697792999988451,None,45,0,180,0,,,,,430.62184030000026,,430.61722929999996,430.62184030000026,431.6077566999993,431.6077566999993,431.6077566999993,431.6077566999993,431.61453599999913,432.6075531000006,432.6075531000006,432.87990829999944,x,1,0.2697792999988451,None,,,,,417450,001,2025-10-05_03h23.15.756,Motor Learning,2024.2.4,143.68518002630748,2025-10-05 03h23.22.646866 +0530,
150,v,181,1,45,v,1,0.6526078999995661,None,45,1,181,1,,,,,432.8850186999989,,432.8801463,432.8850186999989,433.8710711999993,433.8710711999993,433.8710711999993,433.8710711999993,433.8780129000006,434.87113789999967,434.87113789999967,435.52487440000004,v,1,0.6526078999995661,None,,,,,417450,001,2025-10-05_03h23.15.756,Motor Learning,2024.2.4,143.68518002630748,2025-10-05 03h23.22.646866 +0530,
50,c,182,2,45,c,1,0.4391322000010405,None,45,2,182,2,,,,,435.5307713000002,,435.52505100000053,435.5307713000002,436.51675049999903,436.51675049999903,436.51675049999903,436.51675049999903,436.5239781,437.5165899000003,437.5165899000003,437.9635140999999,c,1,0.4391322000010405,None,,,,,417450,001,2025-10-05_03h23.15.756,Motor Learning,2024.2.4,143.68518002630748,2025-10-05 03h23.22.646866 +0530,
-150,z,183,3,45,z,1,0.24968769999941287,None,45,3,183,3,,,,,437.9676749999999,,437.9637509999993,437.9676749999999,438.9543818000002,438.9543818000002,438.9543818000002,438.9543818000002,438.9609194000004,439.9537543999995,439.9537543999995,440.20595929999945,z,1,0.24968769999941287,None,,,,,417450,001,2025-10-05_03h23.15.756,Motor Learning,2024.2.4,143.68518002630748,2025-10-05 03h23.22.646866 +0530,
-50,x,184,0,46,x,1,0.34152309999990393,None,46,0,184,0,,,,,440.2109500000006,,440.2063240000007,440.2109500000006,441.1966888999996,441.1966888999996,441.1966888999996,441.1966888999996,441.20368939999935,442.1963761999996,442.1963761999996,442.54542579999907,x,1,0.34152309999990393,None,,,,,417450,001,2025-10-05_03h23.15.756,Motor Learning,2024.2.4,143.68518002630748,2025-10-05 03h23.22.646866 +0530,
150,v,185,1,46,v,1,0.19407800000044517,None,46,1,185,1,,,,,442.55047079999895,,442.5457635999992,442.55047079999895,443.53659359999983,443.53659359999983,443.53659359999983,443.53659359999983,443.5434329999989,444.5363548999994,444.5363548999994,444.7325144999995,v,1,0.19407800000044517,None,,,,,417450,001,2025-10-05_03h23.15.756,Motor Learning,2024.2.4,143.68518002630748,2025-10-05 03h23.22.646866 +0530,
50,c,186,2,46,c,1,0.2430564999995113,None,46,2,186,2,,,,,444.73815999999897,,444.7327951999996,444.73815999999897,445.72379550000005,445.72379550000005,445.72379550000005,445.72379550000005,445.7307144000006,446.72364729999936,446.72364729999936,446.9679137999992,c,1,0.2430564999995113,None,,,,,417450,001,2025-10-05_03h23.15.756,Motor Learning,2024.2.4,143.68518002630748,2025-10-05 03h23.22.646866 +0530,
-150,z,187,3,46,z,1,0.4919761000001017,None,46,3,187,3,,,,,446.9733890000007,,446.9682092000003,446.9733890000007,447.9594639000006,447.9594639000006,447.9594639000006,447.9594639000006,447.9664498000002,448.9594823999996,448.9594823999996,449.4532872999989,z,1,0.4919761000001017,None,,,,,417450,001,2025-10-05_03h23.15.756,Motor Learning,2024.2.4,143.68518002630748,2025-10-05 03h23.22.646866 +0530,
-50,x,188,0,47,x,1,0.4327138000007835,None,47,0,188,0,,,,,449.4593454999995,,449.4535556999999,449.4593454999995,450.44534639999983,450.44534639999983,450.44534639999983,450.44534639999983,450.4522366000001,451.445052699999,451.445052699999,451.88368869999977,x,1,0.4327138000007835,None,,,,,417450,001,2025-10-05_03h23.15.756,Motor Learning,2024.2.4,143.68518002630748,2025-10-05 03h23.22.646866 +0530,
150,v,189,1,47,v,1,0.2855935999996291,None,47,1,189,1,,,,,451.88935479999964,,451.8840638999991,451.88935479999964,452.87561689999893,452.87561689999893,452.87561689999893,452.87561689999893,452.88243539999894,453.87539730000026,453.87539730000026,454.1673286000005,v,1,0.2855935999996291,None,,,,,417450,001,2025-10-05_03h23.15.756,Motor Learning,2024.2.4,143.68518002630748,2025-10-05 03h23.22.646866 +0530,
50,c,190,2,47,c,1,0.37886819999948784,None,47,2,190,2,,,,,454.1740635999995,,454.16751119999935,454.1740635999995,455.1600011999999,455.1600011999999,455.1600011999999,455.1600011999999,455.1669189000004,456.160579899999,456.160579899999,456.5420895999996,c,1,0.37886819999948784,None,,,,,417450,001,2025-10-05_03h23.15.756,Motor Learning,2024.2.4,143.68518002630748,2025-10-05 03h23.22.646866 +0530,
-150,z,191,3,47,z,1,0.39169240000046557,None,47,3,191,3,,,,,456.5485016999992,,456.5423102999994,456.5485016999992,457.5346196999999,457.5346196999999,457.5346196999999,457.5346196999999,457.54148519999944,458.5344834999996,458.5344834999996,458.93170800000007,z,1,0.39169240000046557,None,,,,,417450,001,2025-10-05_03h23.15.756,Motor Learning,2024.2.4,143.68518002630748,2025-10-05 03h23.22.646866 +0530,
-50,x,192,0,48,x,1,0.27860099999998056,None,48,0,192,0,,,,,458.9370085999999,,458.9320201999999,458.9370085999999,459.92301450000014,459.92301450000014,459.92301450000014,459.92301450000014,459.9299253999998,460.92356010000003,460.92356010000003,461.2084082000001,x,1,0.27860099999998056,None,,,,,417450,001,2025-10-05_03h23.15.756,Motor Learning,2024.2.4,143.68518002630748,2025-10-05 03h23.22.646866 +0530,
150,v,193,1,48,v,1,0.29735210000035295,None,48,1,193,1,,,,,461.21442659999957,,461.2087105999999,461.21442659999957,462.20064749999983,462.20064749999983,462.20064749999983,462.20064749999983,462.2074735999995,463.20045629999913,463.20045629999913,463.50052159999905,v,1,0.29735210000035295,None,,,,,417450,001,2025-10-05_03h23.15.756,Motor Learning,2024.2.4,143.68518002630748,2025-10-05 03h23.22.646866 +0530,
50,c,194,2,48,c,1,0.4737994000006438,None,48,2,194,2,,,,,463.5059352999997,,463.50092589999986,463.5059352999997,464.49250439999923,464.49250439999923,464.49250439999923,464.49250439999923,464.4989029999997,465.4915824999989,465.4915824999989,465.9718699999994,c,1,0.4737994000006438,None,,,,,417450,001,2025-10-05_03h23.15.756,Motor Learning,2024.2.4,143.68518002630748,2025-10-05 03h23.22.646866 +0530,
-150,z,195,3,48,z,1,0.28394769999977143,None,48,3,195,3,,,,,465.977707,,465.9722063999998,465.977707,466.9639628999994,466.9639628999994,466.9639628999994,466.9639628999994,466.9708076000006,467.96348000000035,467.96348000000035,468.24948849999964,z,1,0.28394769999977143,None,,,,,417450,001,2025-10-05_03h23.15.756,Motor Learning,2024.2.4,143.68518002630748,2025-10-05 03h23.22.646866 +0530,
-50,x,196,0,49,x,1,0.28041980000125477,None,49,0,196,0,,,,,468.2550950999994,,468.2499253999995,468.2550950999994,469.2412265999992,469.2412265999992,469.2412265999992,469.2412265999992,469.24822549999953,470.2411695999999,470.2411695999999,470.52712359999896,x,1,0.28041980000125477,None,,,,,417450,001,2025-10-05_03h23.15.756,Motor Learning,2024.2.4,143.68518002630748,2025-10-05 03h23.22.646866 +0530,
150,v,197,1,49,v,1,0.3240525000001071,None,49,1,197,1,,,,,470.5326521999996,,470.52751779999926,470.5326521999996,471.5186733999999,471.5186733999999,471.5186733999999,471.5186733999999,471.5255940999996,472.5185586000007,472.5185586000007,472.8467222999989,v,1,0.3240525000001071,None,,,,,417450,001,2025-10-05_03h23.15.756,Motor Learning,2024.2.4,143.68518002630748,2025-10-05 03h23.22.646866 +0530,
50,c,198,2,49,c,1,1.0960596000004443,None,49,2,198,2,,,,,472.85180349999973,,472.84698949999984,472.85180349999973,473.837544,473.837544,473.837544,473.837544,473.84440969999923,474.83757610000066,474.83757610000066,475.9359272999991,c,1,1.0960596000004443,None,,,,,417450,001,2025-10-05_03h23.15.756,Motor Learning,2024.2.4,143.68518002630748,2025-10-05 03h23.22.646866 +0530,
-150,z,199,3,49,z,1,0.29600420000133454,None,49,3,199,3,,,,,475.94145260000005,,475.9362230000006,475.94145260000005,476.9276893999995,476.9276893999995,476.9276893999995,476.9276893999995,476.93459299999995,477.9273555999989,477.9273555999989,478.2267677,z,1,0.29600420000133454,None,,,,,417450,001,2025-10-05_03h23.15.756,Motor Learning,2024.2.4,143.68518002630748,2025-10-05 03h23.22.646866 +0530,
50,c,0,0,0,c,1,0.4416181999986293,None,,,,,0,0,0,2,478.2587205999989,,478.25354419999894,478.2587205999989,479.2189099999996,479.2189099999996,479.2189099999996,479.2189099999996,479.25365000000056,480.2185410000002,480.2185410000002,480.66428300000007,,,,,c,1,0.4416181999986293,None,417450,001,2025-10-05_03h23.15.756,Motor Learning,2024.2.4,143.68518002630748,2025-10-05 03h23.22.646866 +0530,
-50,x,1,1,0,x,1,0.3324978000000556,None,,,,,0,1,1,0,480.66994089999935,,480.6645719999997,480.66994089999935,481.65629649999937,481.65629649999937,481.65629649999937,481.65629649999937,481.6630304999999,482.6557742999994,482.6557742999994,482.9907497000004,,,,,x,1,0.3324978000000556,None,417450,001,2025-10-05_03h23.15.756,Motor Learning,2024.2.4,143.68518002630748,2025-10-05 03h23.22.646866 +0530,
-150,z,2,2,0,z,1,0.27916000000004715,None,,,,,0,2,2,3,482.9961132999997,,482.9910337000001,482.9961132999997,483.9819588999999,483.9819588999999,483.9819588999999,483.9819588999999,483.9890407999992,484.9820966999996,484.9820966999996,485.2672946999992,,,,,z,1,0.27916000000004715,None,417450,001,2025-10-05_03h23.15.756,Motor Learning,2024.2.4,143.68518002630748,2025-10-05 03h23.22.646866 +0530,
50,c,3,3,1,c,1,0.5467198999995162,None,,,,,1,3,3,2,485.27323500000057,,485.26762899999994,485.27323500000057,486.25940439999977,486.25940439999977,486.25940439999977,486.25940439999977,486.26628979999987,487.2591231999995,487.2591231999995,487.8090809000005,,,,,c,1,0.5467198999995162,None,417450,001,2025-10-05_03h23.15.756,Motor Learning,2024.2.4,143.68518002630748,2025-10-05 03h23.22.646866 +0530,
-50,x,4,4,1,x,1,0.47849849999875005,None,,,,,1,4,4,0,487.814841899999,,487.80938219999916,487.814841899999,488.8009172000002,488.8009172000002,488.8009172000002,488.8009172000002,488.80773170000066,489.8005775999991,489.8005775999991,490.2815546999991,,,,,x,1,0.47849849999875005,None,417450,001,2025-10-05_03h23.15.756,Motor Learning,2024.2.4,143.68518002630748,2025-10-05 03h23.22.646866 +0530,
150,v,5,5,0,v,1,0.4525097999994614,None,,,,,0,5,5,1,490.2865017999993,,490.281856399999,490.2865017999993,491.2723924999991,491.2723924999991,491.2723924999991,491.2723924999991,491.2796135999997,492.27256130000023,492.27256130000023,492.73242650000066,,,,,v,1,0.4525097999994614,None,417450,001,2025-10-05_03h23.15.756,Motor Learning,2024.2.4,143.68518002630748,2025-10-05 03h23.22.646866 +0530,
-150,z,6,6,1,z,1,0.3226369000003615,None,,,,,1,6,6,3,492.7375448999992,,492.73276909999913,492.7375448999992,493.72373849999894,493.72373849999894,493.72373849999894,493.72373849999894,493.7310161000005,494.7235725999999,494.7235725999999,495.0508912000005,,,,,z,1,0.3226369000003615,None,417450,001,2025-10-05_03h23.15.756,Motor Learning,2024.2.4,143.68518002630748,2025-10-05 03h23.22.646866 +0530,
-150,z,7,7,2,z,1,0.4836276000005455,None,,,,,2,7,7,3,495.0567183000003,,495.05124009999963,495.0567183000003,496.04284759999973,496.04284759999973,496.04284759999973,496.04284759999973,496.0498564999998,497.0425058000001,497.0425058000001,497.52977069999906,,,,,z,1,0.4836276000005455,None,417450,001,2025-10-05_03h23.15.756,Motor Learning,2024.2.4,143.68518002630748,2025-10-05 03h23.22.646866 +0530,
-50,x,8,8,2,x,1,0.4295764999988023,None,,,,,2,8,8,0,497.53557379999984,,497.5300396999992,497.53557379999984,498.52143819999947,498.52143819999947,498.52143819999947,498.52143819999947,498.5285038000002,499.52223219999905,499.52223219999905,499.9535562000001,,,,,x,1,0.4295764999988023,None,417450,001,2025-10-05_03h23.15.756,Motor Learning,2024.2.4,143.68518002630748,2025-10-05 03h23.22.646866 +0530,
-50,x,9,9,3,x,1,0.35102220000044326,None,,,,,3,9,9,0,499.958654,,499.9539888999989,499.958654,500.94477150000057,500.94477150000057,500.94477150000057,500.94477150000057,500.951853999999,501.94472250000035,501.94472250000035,502.29990929999985,,,,,x,1,0.35102220000044326,None,417450,001,2025-10-05_03h23.15.756,Motor Learning,2024.2.4,143.68518002630748,2025-10-05 03h23.22.646866 +0530,
-150,z,10,10,3,z,1,0.3722973000003549,None,,,,,3,10,10,3,502.3056668999998,,502.3002768999995,502.3056668999998,503.29185920000054,503.29185920000054,503.29185920000054,503.29185920000054,503.2987768999992,504.29152129999966,504.29152129999966,504.66755829999965,,,,,z,1,0.3722973000003549,None,417450,001,2025-10-05_03h23.15.756,Motor Learning,2024.2.4,143.68518002630748,2025-10-05 03h23.22.646866 +0530,
150,v,11,11,1,v,1,0.339470099999744,None,,,,,1,11,11,1,504.6734643999989,,504.6679346000001,504.6734643999989,505.65956519999963,505.65956519999963,505.65956519999963,505.65956519999963,505.66649420000067,506.6592777999995,506.6592777999995,507.0009776000006,,,,,v,1,0.339470099999744,None,417450,001,2025-10-05_03h23.15.756,Motor Learning,2024.2.4,143.68518002630748,2025-10-05 03h23.22.646866 +0530,
-50,x,12,12,4,x,1,0.46458329999950365,None,,,,,4,12,12,0,507.0064093000001,,507.0013257999999,507.0064093000001,507.99243659999956,507.99243659999956,507.99243659999956,507.99243659999956,507.9992323999995,508.9922829999996,508.9922829999996,509.45886860000064,,,,,x,1,0.46458329999950365,None,417450,001,2025-10-05_03h23.15.756,Motor Learning,2024.2.4,143.68518002630748,2025-10-05 03h23.22.646866 +0530,
150,v,13,13,2,v,1,0.3340093999995588,None,,,,,2,13,13,1,509.4642447999995,,509.45925089999946,509.4642447999995,510.4504882000001,510.4504882000001,510.4504882000001,510.4504882000001,510.4573161999997,511.4501062999989,511.4501062999989,511.79110760000003,,,,,v,1,0.3340093999995588,None,417450,001,2025-10-05_03h23.15.756,Motor Learning,2024.2.4,143.68518002630748,2025-10-05 03h23.22.646866 +0530,
-50,x,14,14,5,x,1,0.5180331000010483,None,,,,,5,14,14,0,511.7975029999998,,511.79133600000023,511.7975029999998,512.7835061999995,512.7835061999995,512.7835061999995,512.7835061999995,512.7901724999992,513.7834368999993,513.7834368999993,514.3053739999996,,,,,x,1,0.5180331000010483,None,417450,001,2025-10-05_03h23.15.756,Motor Learning,2024.2.4,143.68518002630748,2025-10-05 03h23.22.646866 +0530,
50,c,15,15,2,c,1,0.38518499999918276,None,,,,,2,15,15,2,514.3108532000006,,514.3057630999992,514.3108532000006,515.2967497999998,515.2967497999998,515.2967497999998,515.2967497999998,515.303780799999,516.2966596999995,516.2966596999995,516.6870829,,,,,c,1,0.38518499999918276,None,417450,001,2025-10-05_03h23.15.756,Motor Learning,2024.2.4,143.68518002630748,2025-10-05 03h23.22.646866 +0530,
150,v,16,16,3,v,1,0.4543466000013723,None,,,,,3,16,16,1,516.6928348000001,,516.6874566000006,516.6928348000001,517.6789931999992,517.6789931999992,517.6789931999992,517.6789931999992,517.6857125000006,518.6783727999991,518.6783727999991,519.1380456000006,,,,,v,1,0.4543466000013723,None,417450,001,2025-10-05_03h23.15.756,Motor Learning,2024.2.4,143.68518002630748,2025-10-05 03h23.22.646866 +0530,
50,c,17,17,3,c,1,0.5881177999999636,None,,,,,3,17,17,2,519.1437387000005,,519.1384615999996,519.1437387000005,520.1296760000005,520.1296760000005,520.1296760000005,520.1296760000005,520.1366875999993,521.1295444999996,521.1295444999996,521.7207906000003,,,,,c,1,0.5881177999999636,None,417450,001,2025-10-05_03h23.15.756,Motor Learning,2024.2.4,143.68518002630748,2025-10-05 03h23.22.646866 +0530,
-50,x,18,18,6,x,1,0.3720814000007522,None,,,,,6,18,18,0,521.7266003000004,,521.7210928999993,521.7266003000004,522.7130459999989,522.7130459999989,522.7130459999989,522.7130459999989,522.7193843999994,523.7122330999991,523.7122330999991,524.0886236000006,,,,,x,1,0.3720814000007522,None,417450,001,2025-10-05_03h23.15.756,Motor Learning,2024.2.4,143.68518002630748,2025-10-05 03h23.22.646866 +0530,
150,v,19,19,4,v,1,0.37799189999896043,None,,,,,4,19,19,1,524.0942204000003,,524.0889963999998,524.0942204000003,525.0803094999992,525.0803094999992,525.0803094999992,525.0803094999992,525.0871738999995,526.0802442000004,526.0802442000004,526.4630221999996,,,,,v,1,0.37799189999896043,None,417450,001,2025-10-05_03h23.15.756,Motor Learning,2024.2.4,143.68518002630748,2025-10-05 03h23.22.646866 +0530,
-50,x,20,20,7,x,1,0.4047331999991002,None,,,,,7,20,20,0,526.4687594999996,,526.4634538999999,526.4687594999996,527.4547726000001,527.4547726000001,527.4547726000001,527.4547726000001,527.4617161999995,528.4546897,528.4546897,528.8660103000002,,,,,x,1,0.4047331999991002,None,417450,001,2025-10-05_03h23.15.756,Motor Learning,2024.2.4,143.68518002630748,2025-10-05 03h23.22.646866 +0530,
150,v,21,21,5,v,1,0.3805220999984158,None,,,,,5,21,21,1,528.8713508000001,,528.866363699999,528.8713508000001,529.8574305000002,529.8574305000002,529.8574305000002,529.8574305000002,529.8642645999989,530.8573603000004,530.8573603000004,531.2407048000005,,,,,v,1,0.3805220999984158,None,417450,001,2025-10-05_03h23.15.756,Motor Learning,2024.2.4,143.68518002630748,2025-10-05 03h23.22.646866 +0530,
-150,z,22,22,4,z,1,0.4114845999993122,None,,,,,4,22,22,3,531.2459184999989,,531.2414076999994,531.2459184999989,532.2325614999991,532.2325614999991,532.2325614999991,532.2325614999991,532.2393477999995,533.2321444999998,533.2321444999998,533.6495613000006,,,,,z,1,0.4114845999993122,None,417450,001,2025-10-05_03h23.15.756,Motor Learning,2024.2.4,143.68518002630748,2025-10-05 03h23.22.646866 +0530,
150,v,23,23,6,v,1,0.2758998999997857,None,,,,,6,23,23,1,533.6553428000007,,533.6499014000001,533.6553428000007,534.6411473999997,534.6411473999997,534.6411473999997,534.6411473999997,534.6481580999989,535.6412796000004,535.6412796000004,535.9200285999996,,,,,v,1,0.2758998999997857,None,417450,001,2025-10-05_03h23.15.756,Motor Learning,2024.2.4,143.68518002630748,2025-10-05 03h23.22.646866 +0530,
-50,x,24,24,8,x,1,0.3880637000002025,None,,,,,8,24,24,0,535.9261927999996,,535.9202738999993,535.9261927999996,536.9117373999998,536.9117373999998,536.9117373999998,536.9117373999998,536.9189313000006,537.911865,537.911865,538.3016977000007,,,,,x,1,0.3880637000002025,None,417450,001,2025-10-05_03h23.15.756,Motor Learning,2024.2.4,143.68518002630748,2025-10-05 03h23.22.646866 +0530,
-50,x,25,25,9,x,1,0.4912734999998065,None,,,,,9,25,25,0,538.3073707999993,,538.3020027999992,538.3073707999993,539.2934796999998,539.2934796999998,539.2934796999998,539.2934796999998,539.3005025999992,540.2933355999994,540.2933355999994,540.787456099999,,,,,x,1,0.4912734999998065,None,417450,001,2025-10-05_03h23.15.756,Motor Learning,2024.2.4,143.68518002630748,2025-10-05 03h23.22.646866 +0530,
-150,z,26,26,5,z,1,0.332752199999959,None,,,,,5,26,26,3,540.7933011000005,,540.7877494999993,540.7933011000005,541.7792155999996,541.7792155999996,541.7792155999996,541.7792155999996,541.7860834000003,542.7788951000002,542.7788951000002,543.1141279000003,,,,,z,1,0.332752199999959,None,417450,001,2025-10-05_03h23.15.756,Motor Learning,2024.2.4,143.68518002630748,2025-10-05 03h23.22.646866 +0530,
-150,z,27,27,6,z,1,0.3405800000000454,None,,,,,6,27,27,3,543.1189768999993,,543.1147175000006,543.1189768999993,544.1051071000002,544.1051071000002,544.1051071000002,544.1051071000002,544.1120902999992,545.1052311999993,545.1052311999993,545.4530044000003,,,,,z,1,0.3405800000000454,None,417450,001,2025-10-05_03h23.15.756,Motor Learning,2024.2.4,143.68518002630748,2025-10-05 03h23.22.646866 +0530,
-150,z,28,28,7,z,1,0.3373723999993672,None,,,,,7,28,28,3,545.4590167000006,,545.4533482000006,545.4590167000006,546.4452884999992,546.4452884999992,546.4452884999992,546.4452884999992,546.4520658000001,547.4450710000001,547.4450710000001,547.7869346999996,,,,,z,1,0.3373723999993672,None,417450,001,2025-10-05_03h23.15.756,Motor Learning,2024.2.4,143.68518002630748,2025-10-05 03h23.22.646866 +0530,
50,c,29,29,4,c,1,0.4936340000003838,None,,,,,4,29,29,2,547.7921893000002,,547.7872489000001,547.7921893000002,548.7782707999995,548.7782707999995,548.7782707999995,548.7782707999995,548.7852550999996,549.7782356999996,549.7782356999996,550.2787017999999,,,,,c,1,0.4936340000003838,None,417450,001,2025-10-05_03h23.15.756,Motor Learning,2024.2.4,143.68518002630748,2025-10-05 03h23.22.646866 +0530,
-50,x,30,30,10,x,1,0.38336340000023483,None,,,,,10,30,30,0,550.2849179999994,,550.2789708,550.2849179999994,551.2706782000005,551.2706782000005,551.2706782000005,551.2706782000005,551.2776740999998,552.2705853999996,552.2705853999996,552.6605534999999,,,,,x,1,0.38336340000023483,None,417450,001,2025-10-05_03h23.15.756,Motor Learning,2024.2.4,143.68518002630748,2025-10-05 03h23.22.646866 +0530,
50,c,31,31,5,c,1,0.4916739000000234,None,,,,,5,31,31,2,552.6665364,,552.6608567000003,552.6665364,553.6529642000005,553.6529642000005,553.6529642000005,553.6529642000005,553.6594292999998,554.6523899999993,554.6523899999993,555.1483920999999,,,,,c,1,0.4916739000000234,None,417450,001,2025-10-05_03h23.15.756,Motor Learning,2024.2.4,143.68518002630748,2025-10-05 03h23.22.646866 +0530,
150,v,32,32,7,v,1,0.40057530000012775,None,,,,,7,32,32,1,555.1521598999989,,555.1487345999994,555.1521598999989,556.138156699999,556.138156699999,556.138156699999,556.138156699999,556.1451859999997,557.1379514,557.1379514,557.5420023000006,,,,,v,1,0.40057530000012775,None,417450,001,2025-10-05_03h23.15.756,Motor Learning,2024.2.4,143.68518002630748,2025-10-05 03h23.22.646866 +0530,
-150,z,33,33,8,z,1,0.37180090000038035,None,,,,,8,33,33,3,557.5477959,,557.5423351999998,557.5477959,558.5337254999995,558.5337254999995,558.5337254999995,558.5337254999995,558.5405656999992,559.5335742999996,559.5335742999996,559.9095916999995,,,,,z,1,0.37180090000038035,None,417450,001,2025-10-05_03h23.15.756,Motor Learning,2024.2.4,143.68518002630748,2025-10-05 03h23.22.646866 +0530,
150,v,34,34,8,v,1,0.34186810000028345,None,,,,,8,34,34,1,559.915798,,559.9098687999995,559.915798,560.9014824000005,560.9014824000005,560.9014824000005,560.9014824000005,560.9084600000006,561.9013200999998,561.9013200999998,562.2497958000004,,,,,v,1,0.34186810000028345,None,417450,001,2025-10-05_03h23.15.756,Motor Learning,2024.2.4,143.68518002630748,2025-10-05 03h23.22.646866 +0530,
-50,x,35,35,11,x,1,0.32390049999958137,None,,,,,11,35,35,0,562.2555283999991,,562.2500880999996,562.2555283999991,563.2417354999998,563.2417354999998,563.2417354999998,563.2417354999998,563.2485591000004,564.2414429,564.2414429,564.5691910999994,,,,,x,1,0.32390049999958137,None,417450,001,2025-10-05_03h23.15.756,Motor Learning,2024.2.4,143.68518002630748,2025-10-05 03h23.22.646866 +0530,
-150,z,36,36,9,z,1,0.36950419999993755,None,,,,,9,36,36,3,564.5744555000001,,564.5695794000003,564.5744555000001,565.5604817999993,565.5604817999993,565.5604817999993,565.5604817999993,565.5674309999995,566.5603750999999,566.5603750999999,566.9363018000004,,,,,z,1,0.36950419999993755,None,417450,001,2025-10-05_03h23.15.756,Motor Learning,2024.2.4,143.68518002630748,2025-10-05 03h23.22.646866 +0530,
-50,x,37,37,12,x,1,0.3380371000002924,None,,,,,12,37,37,0,566.9423872999996,,566.9365994,566.9423872999996,567.9283362000006,567.9283362000006,567.9283362000006,567.9283362000006,567.9353001,568.9281133999993,568.9281133999993,569.2695361999995,,,,,x,1,0.3380371000002924,None,417450,001,2025-10-05_03h23.15.756,Motor Learning,2024.2.4,143.68518002630748,2025-10-05 03h23.22.646866 +0530,
-150,z,38,38,10,z,1,0.36247759999969276,None,,,,,10,38,38,3,569.2751375999997,,569.2697912999993,569.2751375999997,570.2613679999995,570.2613679999995,570.2613679999995,570.2613679999995,570.2682273999999,571.2612494000005,571.2612494000005,571.6312328999993,,,,,z,1,0.36247759999969276,None,417450,001,2025-10-05_03h23.15.756,Motor Learning,2024.2.4,143.68518002630748,2025-10-05 03h23.22.646866 +0530,
150,v,39,39,9,v,1,0.35599589999947057,None,,,,,9,39,39,1,571.6359197999991,,571.6315940999993,571.6359197999991,572.6220515999994,572.6220515999994,572.6220515999994,572.6220515999994,572.6289524999993,573.6218857999993,573.6218857999993,573.9843240999999,,,,,v,1,0.35599589999947057,None,417450,001,2025-10-05_03h23.15.756,Motor Learning,2024.2.4,143.68518002630748,2025-10-05 03h23.22.646866 +0530,
50,c,40,40,6,c,1,0.44033289999970293,None,,,,,6,40,40,2,573.9898044999991,,573.9847167999997,573.9898044999991,574.9757236999994,574.9757236999994,574.9757236999994,574.9757236999994,574.9827101999999,575.9756027999993,575.9756027999993,576.4213387999989,,,,,c,1,0.44033289999970293,None,417450,001,2025-10-05_03h23.15.756,Motor Learning,2024.2.4,143.68518002630748,2025-10-05 03h23.22.646866 +0530,
50,c,41,41,7,c,1,0.7309824999992998,None,,,,,7,41,41,2,576.4268735999995,,576.4217129999997,576.4268735999995,577.4130200999989,577.4130200999989,577.4130200999989,577.4130200999989,577.4199707999996,578.4127303999994,578.4127303999994,579.1513993999997,,,,,c,1,0.7309824999992998,None,417450,001,2025-10-05_03h23.15.756,Motor Learning,2024.2.4,143.68518002630748,2025-10-05 03h23.22.646866 +0530,
150,v,42,42,10,v,1,0.3924007999994501,None,,,,,10,42,42,1,579.1557711999994,,579.1517416000006,579.1557711999994,580.1418071999997,580.1418071999997,580.1418071999997,580.1418071999997,580.1490130999991,581.1417003999995,581.1417003999995,581.5388497000004,,,,,v,1,0.3924007999994501,None,417450,001,2025-10-05_03h23.15.756,Motor Learning,2024.2.4,143.68518002630748,2025-10-05 03h23.22.646866 +0530,
-50,x,43,43,13,x,1,0.3631803000007494,None,,,,,13,43,43,0,581.5444602000007,,581.5392757999998,581.5444602000007,582.5301822000001,582.5301822000001,582.5301822000001,582.5301822000001,582.5372251999997,583.5301495000003,583.5301495000003,583.8996582999989,,,,,x,1,0.3631803000007494,None,417450,001,2025-10-05_03h23.15.756,Motor Learning,2024.2.4,143.68518002630748,2025-10-05 03h23.22.646866 +0530,
-150,z,44,44,11,z,1,0.49909719999959634,None,,,,,11,44,44,3,583.9049094999991,,583.9000579999993,583.9049094999991,584.8911198999995,584.8911198999995,584.8911198999995,584.8911198999995,584.8980150000007,585.8909762000003,585.8909762000003,586.3924205999992,,,,,z,1,0.49909719999959634,None,417450,001,2025-10-05_03h23.15.756,Motor Learning,2024.2.4,143.68518002630748,2025-10-05 03h23.22.646866 +0530,
150,v,45,45,11,v,1,0.343952299999728,None,,,,,11,45,45,1,586.3976643000005,,586.3926895000004,586.3976643000005,587.3838673999999,587.3838673999999,587.3838673999999,587.3838673999999,587.390773699999,588.3835509,588.3835509,588.732072499999,,,,,v,1,0.343952299999728,None,417450,001,2025-10-05_03h23.15.756,Motor Learning,2024.2.4,143.68518002630748,2025-10-05 03h23.22.646866 +0530,
