pos,corr_resp,thisN,thisTrialN,thisRepN,key_resp.keys,key_resp.corr,key_resp.rt,key_resp.duration,trials.thisRepN,trials.thisTrialN,trials.thisN,trials.thisIndex,trials_2.thisRepN,trials_2.thisTrialN,trials_2.thisN,trials_2.thisIndex,thisRow.t,notes,trial.started,fixation.started,Line_1.started,Line_2.started,Line_3.started,Line_4.started,fixation.stopped,Probe.started,key_resp.started,trial.stopped,trials.key_resp.keys,trials.key_resp.corr,trials.key_resp.rt,trials.key_resp.duration,trials_2.key_resp.keys,trials_2.key_resp.corr,trials_2.key_resp.rt,trials_2.key_resp.duration,participant,session,date,expName,psychopyVersion,frameRate,expStart,
-50,x,0,0,0,x,1,0.5136124999262393,None,0,0,0,0,,,,,0.010194199858233333,,0.007166899973526597,0.010194199858233333,0.9945195000618696,0.9945195000618696,0.9945195000618696,0.9945195000618696,1.0005846000276506,1.99359399988316,1.99359399988316,2.5404658999759704,x,1,0.5136124999262393,None,,,,,704236,001,2025-10-04_08h12.23.123,Motor Learning,2024.2.4,143.41667235551566,2025-10-04 08h12.32.724477 +0530,
150,v,1,1,0,v,1,0.5406721001490951,None,0,1,1,1,,,,,2.5445042999926955,,2.540751300053671,2.5445042999926955,3.535066599957645,3.535066599957645,3.535066599957645,3.535066599957645,3.535066599957645,4.5348232998512685,4.5348232998512685,5.078746999846771,v,1,0.5406721001490951,None,,,,,704236,001,2025-10-04_08h12.23.123,Motor Learning,2024.2.4,143.41667235551566,2025-10-04 08h12.32.724477 +0530,
50,c,2,2,0,c,1,0.34785709995776415,None,0,2,2,2,,,,,5.08354949997738,,5.079131699865684,5.08354949997738,6.069466999964789,6.069466999964789,6.069466999964789,6.069466999964789,6.076745899859816,7.069593399995938,7.069593399995938,7.424389400053769,c,1,0.34785709995776415,None,,,,,704236,001,2025-10-04_08h12.23.123,Motor Learning,2024.2.4,143.41667235551566,2025-10-04 08h12.32.724477 +0530,
-150,z,3,3,0,z,1,0.44541130005382,None,0,3,3,3,,,,,7.430312499869615,,7.424786499934271,7.430312499869615,8.416470899945125,8.416470899945125,8.416470899945125,8.416470899945125,8.423388099996373,9.416159000014886,9.416159000014886,9.868572399951518,z,1,0.44541130005382,None,,,,,704236,001,2025-10-04_08h12.23.123,Motor Learning,2024.2.4,143.41667235551566,2025-10-04 08h12.32.724477 +0530,
-50,x,4,0,1,x,1,0.6573521001264453,None,1,0,4,0,,,,,9.87448180001229,,9.86875949986279,9.87448180001229,10.86042149993591,10.86042149993591,10.86042149993591,10.86042149993591,10.869442400056869,11.860042299842462,11.860042299842462,12.5202196999453,x,1,0.6573521001264453,None,,,,,704236,001,2025-10-04_08h12.23.123,Motor Learning,2024.2.4,143.41667235551566,2025-10-04 08h12.32.724477 +0530,
150,v,5,1,1,v,1,0.71524089993909,None,1,1,5,1,,,,,12.526619700016454,,12.52048259996809,12.526619700016454,13.512997299898416,13.512997299898416,13.512997299898416,13.512997299898416,13.519822099944577,14.51291639986448,14.51291639986448,15.230370299890637,v,1,0.71524089993909,None,,,,,704236,001,2025-10-04_08h12.23.123,Motor Learning,2024.2.4,143.41667235551566,2025-10-04 08h12.32.724477 +0530,
50,c,6,2,1,c,1,0.47398629994131625,None,1,2,6,2,,,,,15.234885199926794,,15.23079780000262,15.234885199926794,16.220924299908802,16.220924299908802,16.220924299908802,16.220924299908802,16.227801099885255,17.220389399910346,17.220389399910346,17.700911599909887,c,1,0.47398629994131625,None,,,,,704236,001,2025-10-04_08h12.23.123,Motor Learning,2024.2.4,143.41667235551566,2025-10-04 08h12.32.724477 +0530,
-150,z,7,3,1,z,1,0.45246870000846684,None,1,3,7,3,,,,,17.706601500045508,,17.70132949994877,17.706601500045508,18.692852600011975,18.692852600011975,18.692852600011975,18.692852600011975,18.69953510002233,19.69255719985813,19.69255719985813,20.151482099900022,z,1,0.45246870000846684,None,,,,,704236,001,2025-10-04_08h12.23.123,Motor Learning,2024.2.4,143.41667235551566,2025-10-04 08h12.32.724477 +0530,
-50,x,8,0,2,x,1,0.6573296000715345,None,2,0,8,0,,,,,20.15736910002306,,20.15183850005269,20.15736910002306,21.14386079995893,21.14386079995893,21.14386079995893,21.14386079995893,21.15069040004164,22.143900899915025,22.143900899915025,22.804653599858284,x,1,0.6573296000715345,None,,,,,704236,001,2025-10-04_08h12.23.123,Motor Learning,2024.2.4,143.41667235551566,2025-10-04 08h12.32.724477 +0530,
150,v,9,1,2,v,1,0.30074470001272857,None,2,1,9,1,,,,,22.809898799983785,,22.804999500047415,22.809898799983785,23.796198799973354,23.796198799973354,23.796198799973354,23.796198799973354,23.803037399891764,24.795901499921456,24.795901499921456,25.102792399935424,v,1,0.30074470001272857,None,,,,,704236,001,2025-10-04_08h12.23.123,Motor Learning,2024.2.4,143.41667235551566,2025-10-04 08h12.32.724477 +0530,
50,c,10,2,2,c,1,0.41120530012995005,None,2,2,10,2,,,,,25.108370499918237,,25.10308859986253,25.108370499918237,26.094342099968344,26.094342099968344,26.094342099968344,26.094342099968344,26.101310400059447,27.094153499929234,27.094153499929234,27.511988800019026,c,1,0.41120530012995005,None,,,,,704236,001,2025-10-04_08h12.23.123,Motor Learning,2024.2.4,143.41667235551566,2025-10-04 08h12.32.724477 +0530,
-150,z,11,3,2,z,1,0.34526710002683103,None,2,3,11,3,,,,,27.51781199988909,,27.512382599990815,27.51781199988909,28.503748999908566,28.503748999908566,28.503748999908566,28.503748999908566,28.510565100004897,29.50370780006051,29.50370780006051,29.85238159983419,z,1,0.34526710002683103,None,,,,,704236,001,2025-10-04_08h12.23.123,Motor Learning,2024.2.4,143.41667235551566,2025-10-04 08h12.32.724477 +0530,
-50,x,12,0,3,x,1,0.40794790000654757,None,3,0,12,0,,,,,29.85773739987053,,29.85270749987103,29.85773739987053,30.84376489999704,30.84376489999704,30.84376489999704,30.84376489999704,30.850619100034237,31.843583999900147,31.843583999900147,32.25464759999886,x,1,0.40794790000654757,None,,,,,704236,001,2025-10-04_08h12.23.123,Motor Learning,2024.2.4,143.41667235551566,2025-10-04 08h12.32.724477 +0530,
150,v,13,1,3,v,1,0.9531804998405278,None,3,1,13,1,,,,,32.26006959984079,,32.25498149986379,32.26006959984079,33.246099199866876,33.246099199866876,33.246099199866876,33.246099199866876,33.25305509986356,34.245969800045714,34.245969800045714,35.20565559994429,v,1,0.9531804998405278,None,,,,,704236,001,2025-10-04_08h12.23.123,Motor Learning,2024.2.4,143.41667235551566,2025-10-04 08h12.32.724477 +0530,
50,c,14,2,3,c,1,0.5685435999184847,None,3,2,14,2,,,,,35.21114429994486,,35.20602110004984,35.21114429994486,36.19695489993319,36.19695489993319,36.19695489993319,36.19695489993319,36.20384919992648,37.19704289990477,37.19704289990477,37.76800669985823,c,1,0.5685435999184847,None,,,,,704236,001,2025-10-04_08h12.23.123,Motor Learning,2024.2.4,143.41667235551566,2025-10-04 08h12.32.724477 +0530,
-150,z,15,3,3,z,1,0.4940952998585999,None,3,3,15,3,,,,,37.77325799991377,,37.76832009991631,37.77325799991377,38.75904749985784,38.75904749985784,38.75904749985784,38.75904749985784,38.76623660000041,39.75910450005904,39.75910450005904,40.26006289990619,z,1,0.4940952998585999,None,,,,,704236,001,2025-10-04_08h12.23.123,Motor Learning,2024.2.4,143.41667235551566,2025-10-04 08h12.32.724477 +0530,
-50,x,16,0,4,x,1,0.29579870007000864,None,4,0,16,0,,,,,40.26575989997946,,40.26036769989878,40.26575989997946,41.251906499965116,41.251906499965116,41.251906499965116,41.251906499965116,41.25866219983436,42.25180880003609,42.25180880003609,42.551623799838126,x,1,0.29579870007000864,None,,,,,704236,001,2025-10-04_08h12.23.123,Motor Learning,2024.2.4,143.41667235551566,2025-10-04 08h12.32.724477 +0530,
150,v,17,1,4,v,1,0.49649219983257353,None,4,1,17,1,,,,,42.557688700035214,,42.55197569984011,42.557688700035214,43.5433324999176,43.5433324999176,43.5433324999176,43.5433324999176,43.55002740002237,44.543170399963856,44.543170399963856,45.04423050000332,v,1,0.49649219983257353,None,,,,,704236,001,2025-10-04_08h12.23.123,Motor Learning,2024.2.4,143.41667235551566,2025-10-04 08h12.32.724477 +0530,
50,c,18,2,4,c,1,0.27325640013441443,None,4,2,18,2,,,,,45.04983919998631,,45.044636899838224,45.04983919998631,46.036015199963,46.036015199963,46.036015199963,46.036015199963,46.043020099867135,47.03581689996645,47.03581689996645,47.31439479999244,c,1,0.27325640013441443,None,,,,,704236,001,2025-10-04_08h12.23.123,Motor Learning,2024.2.4,143.41667235551566,2025-10-04 08h12.32.724477 +0530,
-150,z,19,3,4,z,1,0.3516990998759866,None,4,3,19,3,,,,,47.32037249999121,,47.31472719996236,47.32037249999121,48.306522799888626,48.306522799888626,48.306522799888626,48.306522799888626,48.31354740005918,49.30637499992736,49.30637499992736,49.66176459984854,z,1,0.3516990998759866,None,,,,,704236,001,2025-10-04_08h12.23.123,Motor Learning,2024.2.4,143.41667235551566,2025-10-04 08h12.32.724477 +0530,
-50,x,20,0,5,x,1,0.2550857001915574,None,5,0,20,0,,,,,49.66744580003433,,49.662091200007126,49.66744580003433,50.65332240005955,50.65332240005955,50.65332240005955,50.65332240005955,50.66046819998883,51.65308519988321,51.65308519988321,51.911826899973676,x,1,0.2550857001915574,None,,,,,704236,001,2025-10-04_08h12.23.123,Motor Learning,2024.2.4,143.41667235551566,2025-10-04 08h12.32.724477 +0530,
150,v,21,1,5,v,1,0.3415510000195354,None,5,1,21,1,,,,,51.9170998998452,,51.91220190003514,51.9170998998452,52.90315330005251,52.90315330005251,52.90315330005251,52.90315330005251,52.91057959990576,53.902890200028196,53.902890200028196,54.250979899894446,v,1,0.3415510000195354,None,,,,,704236,001,2025-10-04_08h12.23.123,Motor Learning,2024.2.4,143.41667235551566,2025-10-04 08h12.32.724477 +0530,
50,c,22,2,5,c,1,0.41225789999589324,None,5,2,22,2,,,,,54.25711889984086,,54.25126349995844,54.25711889984086,55.242996299872175,55.242996299872175,55.242996299872175,55.242996299872175,55.25006469991058,56.24285479984246,56.24285479984246,56.66064929985441,c,1,0.41225789999589324,None,,,,,704236,001,2025-10-04_08h12.23.123,Motor Learning,2024.2.4,143.41667235551566,2025-10-04 08h12.32.724477 +0530,
-150,z,23,3,5,z,1,0.2670080999378115,None,5,3,23,3,,,,,56.666422500042245,,56.66101839998737,56.666422500042245,57.65240260004066,57.65240260004066,57.65240260004066,57.65240260004066,57.65932910004631,58.65207209996879,58.65207209996879,58.92440799996257,z,1,0.2670080999378115,None,,,,,704236,001,2025-10-04_08h12.23.123,Motor Learning,2024.2.4,143.41667235551566,2025-10-04 08h12.32.724477 +0530,
-50,x,24,0,6,x,1,0.2419340000487864,None,6,0,24,0,,,,,58.92994549986906,,58.92475640005432,58.92994549986906,59.91586609999649,59.91586609999649,59.91586609999649,59.91586609999649,59.922781999921426,60.91574309999123,60.91574309999123,61.15989959985018,x,1,0.2419340000487864,None,,,,,704236,001,2025-10-04_08h12.23.123,Motor Learning,2024.2.4,143.41667235551566,2025-10-04 08h12.32.724477 +0530,
150,v,25,1,6,v,1,0.3260562000796199,None,6,1,25,1,,,,,61.16562069999054,,61.1603000999894,61.16562069999054,62.15176619985141,62.15176619985141,62.15176619985141,62.15176619985141,62.15872139995918,63.15163279999979,63.15163279999979,63.479831599863246,v,1,0.3260562000796199,None,,,,,704236,001,2025-10-04_08h12.23.123,Motor Learning,2024.2.4,143.41667235551566,2025-10-04 08h12.32.724477 +0530,
50,c,26,2,6,c,1,0.32535449997521937,None,6,2,26,2,,,,,63.48474849993363,,63.480201799888164,63.48474849993363,64.4708864998538,64.4708864998538,64.4708864998538,64.4708864998538,64.47775790002197,65.47069919994101,65.47069919994101,65.79838759987615,c,1,0.32535449997521937,None,,,,,704236,001,2025-10-04_08h12.23.123,Motor Learning,2024.2.4,143.41667235551566,2025-10-04 08h12.32.724477 +0530,
-150,z,27,3,6,z,1,0.44379900000058115,None,6,3,27,3,,,,,65.80397069989704,,65.79856509994715,65.80397069989704,66.79016330000013,66.79016330000013,66.79016330000013,66.79016330000013,66.7968160000164,67.78972400003113,67.78972400003113,68.23655779985711,z,1,0.44379900000058115,None,,,,,704236,001,2025-10-04_08h12.23.123,Motor Learning,2024.2.4,143.41667235551566,2025-10-04 08h12.32.724477 +0530,
-50,x,28,0,7,x,1,0.46487649995833635,None,7,0,28,0,,,,,68.24101709993556,,68.23694589990191,68.24101709993556,69.22716660005972,69.22716660005972,69.22716660005972,69.22716660005972,69.23409499996342,70.22702399990521,70.22702399990521,70.69443759997375,x,1,0.46487649995833635,None,,,,,704236,001,2025-10-04_08h12.23.123,Motor Learning,2024.2.4,143.41667235551566,2025-10-04 08h12.32.724477 +0530,
150,v,29,1,7,v,1,0.4422493001911789,None,7,1,29,1,,,,,70.69894649996422,,70.69480549986474,70.69894649996422,71.68518209992908,71.68518209992908,71.68518209992908,71.68518209992908,71.69197879987769,72.68489559995942,72.68489559995942,73.1303167999722,v,1,0.4422493001911789,None,,,,,704236,001,2025-10-04_08h12.23.123,Motor Learning,2024.2.4,143.41667235551566,2025-10-04 08h12.32.724477 +0530,
50,c,30,2,7,c,1,0.37465859996154904,None,7,2,30,2,,,,,73.13613249990158,,73.13073019986041,73.13613249990158,74.12218689988367,74.12218689988367,74.12218689988367,74.12218689988367,74.12900159996934,75.1221139000263,75.1221139000263,75.49831599998288,c,1,0.37465859996154904,None,,,,,704236,001,2025-10-04_08h12.23.123,Motor Learning,2024.2.4,143.41667235551566,2025-10-04 08h12.32.724477 +0530,
-150,z,31,3,7,z,1,0.3524154999759048,None,7,3,31,3,,,,,75.50379949994385,,75.49870810005814,75.50379949994385,76.48993719997816,76.48993719997816,76.48993719997816,76.48993719997816,76.49681729986332,77.48968319990672,77.48968319990672,77.84526269999333,z,1,0.3524154999759048,None,,,,,704236,001,2025-10-04_08h12.23.123,Motor Learning,2024.2.4,143.41667235551566,2025-10-04 08h12.32.724477 +0530,
-50,x,32,0,8,x,1,0.27187360008247197,None,8,0,32,0,,,,,77.85052379989065,,77.8456506000366,77.85052379989065,78.83681600005366,78.83681600005366,78.83681600005366,78.83681600005366,78.84368929988705,79.83654439984821,79.83654439984821,80.11456479993649,x,1,0.27187360008247197,None,,,,,704236,001,2025-10-04_08h12.23.123,Motor Learning,2024.2.4,143.41667235551566,2025-10-04 08h12.32.724477 +0530,
150,v,33,1,8,v,1,0.31643679994158447,None,8,1,33,1,,,,,80.12123819999397,,80.11477399989963,80.12123819999397,81.10768639994785,81.10768639994785,81.10768639994785,81.10768639994785,81.11413030000404,82.10709730000235,82.10709730000235,82.42755090002902,v,1,0.31643679994158447,None,,,,,704236,001,2025-10-04_08h12.23.123,Motor Learning,2024.2.4,143.41667235551566,2025-10-04 08h12.32.724477 +0530,
50,c,34,2,8,c,1,0.27035630005411804,None,8,2,34,2,,,,,82.4332212000154,,82.42794630001299,82.4332212000154,83.41939319996163,83.41939319996163,83.41939319996163,83.41939319996163,83.42625819984823,84.4190871999599,84.4190871999599,84.69160659983754,c,1,0.27035630005411804,None,,,,,704236,001,2025-10-04_08h12.23.123,Motor Learning,2024.2.4,143.41667235551566,2025-10-04 08h12.32.724477 +0530,
-150,z,35,3,8,z,1,0.24909519986249506,None,8,3,35,3,,,,,84.69691860000603,,84.69193159998395,84.69691860000603,85.68296490004286,85.68296490004286,85.68296490004286,85.68296490004286,85.6898288000375,86.6827982000541,86.6827982000541,86.93481409992091,z,1,0.24909519986249506,None,,,,,704236,001,2025-10-04_08h12.23.123,Motor Learning,2024.2.4,143.41667235551566,2025-10-04 08h12.32.724477 +0530,
-50,x,36,0,9,x,1,0.3217223999090493,None,9,0,36,0,,,,,86.93938170000911,,86.935136300046,86.93938170000911,87.9258876000531,87.9258876000531,87.9258876000531,87.9258876000531,87.93263070005924,88.92552409996279,88.92552409996279,89.25295519991778,x,1,0.3217223999090493,None,,,,,704236,001,2025-10-04_08h12.23.123,Motor Learning,2024.2.4,143.41667235551566,2025-10-04 08h12.32.724477 +0530,
150,v,37,1,9,v,1,0.29989330004900694,None,9,1,37,1,,,,,89.25858270004392,,89.25333089986816,89.25858270004392,90.24477260001004,90.24477260001004,90.24477260001004,90.24477260001004,90.25162380002439,91.24535740003921,91.24535740003921,91.55175710003823,v,1,0.29989330004900694,None,,,,,704236,001,2025-10-04_08h12.23.123,Motor Learning,2024.2.4,143.41667235551566,2025-10-04 08h12.32.724477 +0530,
50,c,38,2,9,c,1,0.29235400003381073,None,9,2,38,2,,,,,91.55697189993225,,91.55205339984968,91.55697189993225,92.54315839987248,92.54315839987248,92.54315839987248,92.54315839987248,92.55003879987635,93.54276750003919,93.54276750003919,93.84252289985307,c,1,0.29235400003381073,None,,,,,704236,001,2025-10-04_08h12.23.123,Motor Learning,2024.2.4,143.41667235551566,2025-10-04 08h12.32.724477 +0530,
-150,z,39,3,9,z,1,0.5110470000654459,None,9,3,39,3,,,,,93.84818199998699,,93.8429103998933,93.84818199998699,94.83428489998914,94.83428489998914,94.83428489998914,94.83428489998914,94.84126150002703,95.8341131999623,95.8341131999623,96.34923579986207,z,1,0.5110470000654459,None,,,,,704236,001,2025-10-04_08h12.23.123,Motor Learning,2024.2.4,143.41667235551566,2025-10-04 08h12.32.724477 +0530,
-50,x,40,0,10,x,1,0.25619869981892407,None,10,0,40,0,,,,,96.35484989988618,,96.34961170004681,96.35484989988618,97.34107519988902,97.34107519988902,97.34107519988902,97.34107519988902,97.34809469990432,98.34084249986336,98.34084249986336,98.59870700002648,x,1,0.25619869981892407,None,,,,,704236,001,2025-10-04_08h12.23.123,Motor Learning,2024.2.4,143.41667235551566,2025-10-04 08h12.32.724477 +0530,
150,v,41,1,10,v,1,0.3602755998726934,None,10,1,41,1,,,,,98.60498779988848,,98.59893739991821,98.60498779988848,99.59059139993042,99.59059139993042,99.59059139993042,99.59059139993042,99.59768479992636,100.59034850005992,100.59034850005992,100.95321159996092,v,1,0.3602755998726934,None,,,,,704236,001,2025-10-04_08h12.23.123,Motor Learning,2024.2.4,143.41667235551566,2025-10-04 08h12.32.724477 +0530,
50,c,42,2,10,c,1,0.3746670000255108,None,10,2,42,2,,,,,100.95838740002364,,100.953594799852,100.95838740002364,101.94463249994442,101.94463249994442,101.94463249994442,101.94463249994442,101.95149799995124,102.9444921000395,102.9444921000395,103.32115840003826,c,1,0.3746670000255108,None,,,,,704236,001,2025-10-04_08h12.23.123,Motor Learning,2024.2.4,143.41667235551566,2025-10-04 08h12.32.724477 +0530,
-150,z,43,3,10,z,1,0.3782776999287307,None,10,3,43,3,,,,,103.32623789994977,,103.32160390005447,103.32623789994977,104.31227210001089,104.31227210001089,104.31227210001089,104.31227210001089,104.31930479989387,105.31204309989698,105.31204309989698,105.69579639984295,z,1,0.3782776999287307,None,,,,,704236,001,2025-10-04_08h12.23.123,Motor Learning,2024.2.4,143.41667235551566,2025-10-04 08h12.32.724477 +0530,
-50,x,44,0,11,x,1,0.29444229998625815,None,11,0,44,0,,,,,105.70098989992402,,105.6962341000326,105.70098989992402,106.68697699997574,106.68697699997574,106.68697699997574,106.68697699997574,106.69395900005475,107.68679269985296,107.68679269985296,107.98681559995748,x,1,0.29444229998625815,None,,,,,704236,001,2025-10-04_08h12.23.123,Motor Learning,2024.2.4,143.41667235551566,2025-10-04 08h12.32.724477 +0530,
150,v,45,1,11,v,1,0.3997299999464303,None,11,1,45,1,,,,,107.99212249997072,,107.9872035998851,107.99212249997072,108.97814809996635,108.97814809996635,108.97814809996635,108.97814809996635,108.98523249989375,109.97801980003715,109.97801980003715,110.38197720004246,v,1,0.3997299999464303,None,,,,,704236,001,2025-10-04_08h12.23.123,Motor Learning,2024.2.4,143.41667235551566,2025-10-04 08h12.32.724477 +0530,
50,c,46,2,11,c,1,0.4927050000987947,None,11,2,46,2,,,,,110.38786669983529,,110.3823094998952,110.38786669983529,111.37364219990559,111.37364219990559,111.37364219990559,111.37364219990559,111.38065469986759,112.37339339987375,112.37339339987375,112.86881809984334,c,1,0.4927050000987947,None,,,,,704236,001,2025-10-04_08h12.23.123,Motor Learning,2024.2.4,143.41667235551566,2025-10-04 08h12.32.724477 +0530,
-150,z,47,3,11,z,1,0.5618840998504311,None,11,3,47,3,,,,,112.87343350006267,,112.86922729993239,112.87343350006267,113.85944589995779,113.85944589995779,113.85944589995779,113.85944589995779,113.8663927000016,114.85934860003181,114.85934860003181,115.42375499987975,z,1,0.5618840998504311,None,,,,,704236,001,2025-10-04_08h12.23.123,Motor Learning,2024.2.4,143.41667235551566,2025-10-04 08h12.32.724477 +0530,
-50,x,48,0,12,x,1,0.5056864998769015,None,12,0,48,0,,,,,115.42860229988582,,115.424107800005,115.42860229988582,116.41469740006141,116.41469740006141,116.41469740006141,116.41469740006141,116.4216640999075,117.41436479985714,117.41436479985714,117.92282229987904,x,1,0.5056864998769015,None,,,,,704236,001,2025-10-04_08h12.23.123,Motor Learning,2024.2.4,143.41667235551566,2025-10-04 08h12.32.724477 +0530,
150,v,49,1,12,v,1,0.2874773000366986,None,12,1,49,1,,,,,117.92841219995171,,117.92314850003459,117.92841219995171,118.91420669993386,118.91420669993386,118.91420669993386,118.91420669993386,118.92131059989333,119.91482529998757,119.91482529998757,120.20654739998281,v,1,0.2874773000366986,None,,,,,704236,001,2025-10-04_08h12.23.123,Motor Learning,2024.2.4,143.41667235551566,2025-10-04 08h12.32.724477 +0530,
50,c,50,2,12,c,1,0.2891208999790251,None,12,2,50,2,,,,,120.21248760004528,,120.20689749997109,120.21248760004528,121.19863600004464,121.19863600004464,121.19863600004464,121.19863600004464,121.20552970003337,122.19868359994143,122.19868359994143,122.49120729998685,c,1,0.2891208999790251,None,,,,,704236,001,2025-10-04_08h12.23.123,Motor Learning,2024.2.4,143.41667235551566,2025-10-04 08h12.32.724477 +0530,
-150,z,51,3,12,z,1,0.36979589983820915,None,12,3,51,3,,,,,122.49720069998875,,122.49158479995094,122.49720069998875,123.48307519988157,123.48307519988157,123.48307519988157,123.48307519988157,123.48997380002402,124.4827775999438,124.4827775999438,124.85946249985136,z,1,0.36979589983820915,None,,,,,704236,001,2025-10-04_08h12.23.123,Motor Learning,2024.2.4,143.41667235551566,2025-10-04 08h12.32.724477 +0530,
-50,x,52,0,13,x,1,0.4885525999125093,None,13,0,52,0,,,,,124.8648657000158,,124.85975289996713,124.8648657000158,125.85084349988028,125.85084349988028,125.85084349988028,125.85084349988028,125.85794649994932,126.85071999998763,126.85071999998763,127.34505299990997,x,1,0.4885525999125093,None,,,,,704236,001,2025-10-04_08h12.23.123,Motor Learning,2024.2.4,143.41667235551566,2025-10-04 08h12.32.724477 +0530,
150,v,53,1,13,v,1,0.3833649998996407,None,13,1,53,1,,,,,127.35030549997464,,127.34542399994098,127.35030549997464,128.33670770004392,128.33670770004392,128.33670770004392,128.33670770004392,128.34361069998704,129.33621790003963,129.33621790003963,129.72696230001748,v,1,0.3833649998996407,None,,,,,704236,001,2025-10-04_08h12.23.123,Motor Learning,2024.2.4,143.41667235551566,2025-10-04 08h12.32.724477 +0530,
50,c,54,2,13,c,1,0.2774601001292467,None,13,2,54,2,,,,,129.73217600001954,,129.72718960000202,129.73217600001954,130.71815779991448,130.71815779991448,130.71815779991448,130.71815779991448,130.7251081999857,131.71807549986988,131.71807549986988,131.99745789985172,c,1,0.2774601001292467,None,,,,,704236,001,2025-10-04_08h12.23.123,Motor Learning,2024.2.4,143.41667235551566,2025-10-04 08h12.32.724477 +0530,
-150,z,55,3,13,z,1,0.27916060015559196,None,13,3,55,3,,,,,132.00276589998975,,131.99778910004534,132.00276589998975,132.9885758999735,132.9885758999735,132.9885758999735,132.9885758999735,132.99558990006335,133.9885388999246,133.9885388999246,134.27417570003308,z,1,0.27916060015559196,None,,,,,704236,001,2025-10-04_08h12.23.123,Motor Learning,2024.2.4,143.41667235551566,2025-10-04 08h12.32.724477 +0530,
-50,x,56,0,14,x,1,0.5687817998696119,None,14,0,56,0,,,,,134.28018999984488,,134.2744417998474,134.28018999984488,135.26613379991613,135.26613379991613,135.26613379991613,135.26613379991613,135.27309969998896,136.26643389998935,136.26643389998935,136.83706569997594,x,1,0.5687817998696119,None,,,,,704236,001,2025-10-04_08h12.23.123,Motor Learning,2024.2.4,143.41667235551566,2025-10-04 08h12.32.724477 +0530,
150,v,57,1,14,v,1,0.38780750008299947,None,14,1,57,1,,,,,136.84233669983223,,136.83744090003893,136.84233669983223,137.82816829998046,137.82816829998046,137.82816829998046,137.82816829998046,137.8351304999087,138.8279696998652,138.8279696998652,139.2184003998991,v,1,0.38780750008299947,None,,,,,704236,001,2025-10-04_08h12.23.123,Motor Learning,2024.2.4,143.41667235551566,2025-10-04 08h12.32.724477 +0530,
50,c,58,2,14,c,1,0.22366979997605085,None,14,2,58,2,,,,,139.22371629998088,,139.21880239993334,139.22371629998088,140.20956570003182,140.20956570003182,140.20956570003182,140.20956570003182,140.21651569986716,141.20957649988122,141.20957649988122,141.4396597999148,c,1,0.22366979997605085,None,,,,,704236,001,2025-10-04_08h12.23.123,Motor Learning,2024.2.4,143.41667235551566,2025-10-04 08h12.32.724477 +0530,
-150,z,59,3,14,z,1,0.27167219994589686,None,14,3,59,3,,,,,141.44589739991352,,141.43993470002897,141.44589739991352,142.4317743999418,142.4317743999418,142.4317743999418,142.4317743999418,142.43852159986272,143.43170959991403,143.43170959991403,143.71017719991505,z,1,0.27167219994589686,None,,,,,704236,001,2025-10-04_08h12.23.123,Motor Learning,2024.2.4,143.41667235551566,2025-10-04 08h12.32.724477 +0530,
-50,x,60,0,15,x,1,0.16353109991177917,None,15,0,60,0,,,,,143.71623829985037,,143.71040509990416,143.71623829985037,144.7022281999234,144.7022281999234,144.7022281999234,144.7022281999234,144.70965950004756,145.7018222999759,145.7018222999759,145.86910769995302,x,1,0.16353109991177917,None,,,,,704236,001,2025-10-04_08h12.23.123,Motor Learning,2024.2.4,143.41667235551566,2025-10-04 08h12.32.724477 +0530,
150,v,61,1,15,v,1,0.20536089991219342,None,15,1,61,1,,,,,145.87550879991613,,145.86929930001497,145.87550879991613,146.86158389993943,146.86158389993943,146.86158389993943,146.86158389993943,146.86848589987494,147.86152180004865,147.86152180004865,148.07048860006034,v,1,0.20536089991219342,None,,,,,704236,001,2025-10-04_08h12.23.123,Motor Learning,2024.2.4,143.41667235551566,2025-10-04 08h12.32.724477 +0530,
50,c,62,2,15,c,1,0.2703585000708699,None,15,2,62,2,,,,,148.0765943999868,,148.07070459984243,148.0765943999868,149.0628211000003,149.0628211000003,149.0628211000003,149.0628211000003,149.06958099990152,150.06258739996701,150.06258739996701,150.33544469997287,c,1,0.2703585000708699,None,,,,,704236,001,2025-10-04_08h12.23.123,Motor Learning,2024.2.4,143.41667235551566,2025-10-04 08h12.32.724477 +0530,
-150,z,63,3,15,z,1,0.3159048999659717,None,15,3,63,3,,,,,150.34013869985938,,150.3358463998884,150.34013869985938,151.32616649987176,151.32616649987176,151.32616649987176,151.32616649987176,151.33336719986983,152.32598980003968,152.32598980003968,152.6469302000478,z,1,0.3159048999659717,None,,,,,704236,001,2025-10-04_08h12.23.123,Motor Learning,2024.2.4,143.41667235551566,2025-10-04 08h12.32.724477 +0530,
-50,x,64,0,16,x,1,0.27688149991445243,None,16,0,64,0,,,,,152.65247970004566,,152.6473805999849,152.65247970004566,153.63837890001014,153.63837890001014,153.63837890001014,153.63837890001014,153.6453082000371,154.6383970999159,154.6383970999159,154.9181059000548,x,1,0.27688149991445243,None,,,,,704236,001,2025-10-04_08h12.23.123,Motor Learning,2024.2.4,143.41667235551566,2025-10-04 08h12.32.724477 +0530,
150,v,65,1,16,v,1,0.32116020005196333,None,16,1,65,1,,,,,154.9230851000175,,154.918519299943,154.9230851000175,155.90897449990734,155.90897449990734,155.90897449990734,155.90897449990734,155.91589179984294,156.90870060003363,156.90870060003363,157.23570619989187,v,1,0.32116020005196333,None,,,,,704236,001,2025-10-04_08h12.23.123,Motor Learning,2024.2.4,143.41667235551566,2025-10-04 08h12.32.724477 +0530,
50,c,66,2,16,c,1,0.30743489996530116,None,16,2,66,2,,,,,157.24181609996594,,157.23601270001382,157.24181609996594,158.22786540002562,158.22786540002562,158.22786540002562,158.22786540002562,158.23493729997426,159.2280631000176,159.2280631000176,159.5414139998611,c,1,0.30743489996530116,None,,,,,704236,001,2025-10-04_08h12.23.123,Motor Learning,2024.2.4,143.41667235551566,2025-10-04 08h12.32.724477 +0530,
-150,z,67,3,16,z,1,0.6244793999940157,None,16,3,67,3,,,,,159.54710299987346,,159.54173840000294,159.54710299987346,160.53327839984559,160.53327839984559,160.53327839984559,160.53327839984559,160.5406036998611,161.53310830006376,161.53310830006376,162.16041449992917,z,1,0.6244793999940157,None,,,,,704236,001,2025-10-04_08h12.23.123,Motor Learning,2024.2.4,143.41667235551566,2025-10-04 08h12.32.724477 +0530,
-50,x,68,0,17,x,1,0.27071569999679923,None,17,0,68,0,,,,,162.1651019998826,,162.16078069992363,162.1651019998826,163.15085330000147,163.15085330000147,163.15085330000147,163.15085330000147,163.15789179992862,164.15141859999858,164.15141859999858,164.42939119995572,x,1,0.27071569999679923,None,,,,,704236,001,2025-10-04_08h12.23.123,Motor Learning,2024.2.4,143.41667235551566,2025-10-04 08h12.32.724477 +0530,
150,v,69,1,17,v,1,0.3469432999845594,None,17,1,69,1,,,,,164.43552219984122,,164.42971060005948,164.43552219984122,165.42154500004835,165.42154500004835,165.42154500004835,165.42154500004835,165.42849139985628,166.42135880002752,166.42135880002752,166.77039119997062,v,1,0.3469432999845594,None,,,,,704236,001,2025-10-04_08h12.23.123,Motor Learning,2024.2.4,143.41667235551566,2025-10-04 08h12.32.724477 +0530,
50,c,70,2,17,c,1,0.5152626000344753,None,17,2,70,2,,,,,166.7754394998774,,166.77079320000485,166.7754394998774,167.76146800001152,167.76146800001152,167.76146800001152,167.76146800001152,167.76854059984908,168.76143379998393,168.76143379998393,169.283613699954,c,1,0.5152626000344753,None,,,,,704236,001,2025-10-04_08h12.23.123,Motor Learning,2024.2.4,143.41667235551566,2025-10-04 08h12.32.724477 +0530,
-150,z,71,3,17,z,1,0.5163387001957744,None,17,3,71,3,,,,,169.28937419992872,,169.28399110003375,169.28937419992872,170.27499219984747,170.27499219984747,170.27499219984747,170.27499219984747,170.28190790000372,171.27484399988316,171.27484399988316,171.79747530003078,z,1,0.5163387001957744,None,,,,,704236,001,2025-10-04_08h12.23.123,Motor Learning,2024.2.4,143.41667235551566,2025-10-04 08h12.32.724477 +0530,
-50,x,72,0,18,x,1,0.29982850002124906,None,18,0,72,0,,,,,171.80240130005404,,171.79787610005587,171.80240130005404,172.78846389986575,172.78846389986575,172.78846389986575,172.78846389986575,172.79545599990524,173.78828820004128,173.78828820004128,174.0900355000049,x,1,0.29982850002124906,None,,,,,704236,001,2025-10-04_08h12.23.123,Motor Learning,2024.2.4,143.41667235551566,2025-10-04 08h12.32.724477 +0530,
150,v,73,1,18,v,1,0.41742219985462725,None,18,1,73,1,,,,,174.09378060000017,,174.09042109991424,174.09378060000017,175.07969329995103,175.07969329995103,175.07969329995103,175.07969329995103,175.0869273999706,176.07976859994233,176.07976859994233,176.50475570000708,v,1,0.41742219985462725,None,,,,,704236,001,2025-10-04_08h12.23.123,Motor Learning,2024.2.4,143.41667235551566,2025-10-04 08h12.32.724477 +0530,
50,c,74,2,18,c,1,0.40826880000531673,None,18,2,74,2,,,,,176.51021349988878,,176.50504820002243,176.51021349988878,177.49599680001847,177.49599680001847,177.49599680001847,177.49599680001847,177.50298519991338,178.49598210002296,178.49598210002296,178.90709430002607,c,1,0.40826880000531673,None,,,,,704236,001,2025-10-04_08h12.23.123,Motor Learning,2024.2.4,143.41667235551566,2025-10-04 08h12.32.724477 +0530,
-150,z,75,3,18,z,1,0.2376771999988705,None,18,3,75,3,,,,,178.91261380002834,,178.90747500001453,178.91261380002834,179.89855919987895,179.89855919987895,179.89855919987895,179.89855919987895,179.90557549986988,180.89830789994448,180.89830789994448,181.14254819997586,z,1,0.2376771999988705,None,,,,,704236,001,2025-10-04_08h12.23.123,Motor Learning,2024.2.4,143.41667235551566,2025-10-04 08h12.32.724477 +0530,
-50,x,76,0,19,x,1,0.21647460013628006,None,19,0,76,0,,,,,181.14841359993443,,181.142811199883,181.14841359993443,182.13566679996438,182.13566679996438,182.13566679996438,182.13566679996438,182.1412978998851,183.134111299878,183.134111299878,183.3577063998673,x,1,0.21647460013628006,None,,,,,704236,001,2025-10-04_08h12.23.123,Motor Learning,2024.2.4,143.41667235551566,2025-10-04 08h12.32.724477 +0530,
150,v,77,1,19,v,1,0.32796939997933805,None,19,1,77,1,,,,,183.36322449985892,,183.35804039984941,183.36322449985892,184.34946459997445,184.34946459997445,184.34946459997445,184.34946459997445,184.35627559991553,185.34921110002324,185.34921110002324,185.68366710003465,v,1,0.32796939997933805,None,,,,,704236,001,2025-10-04_08h12.23.123,Motor Learning,2024.2.4,143.41667235551566,2025-10-04 08h12.32.724477 +0530,
50,c,78,2,19,c,1,0.29128220002166927,None,19,2,78,2,,,,,185.689361799974,,185.68409450002946,185.689361799974,186.6754026999697,186.6754026999697,186.6754026999697,186.6754026999697,186.68232659995556,187.67532549984753,187.67532549984753,187.96869189990684,c,1,0.29128220002166927,None,,,,,704236,001,2025-10-04_08h12.23.123,Motor Learning,2024.2.4,143.41667235551566,2025-10-04 08h12.32.724477 +0530,
-150,z,79,3,19,z,1,0.6176330000162125,None,19,3,79,3,,,,,187.97380789997987,,187.96906699985266,187.97380789997987,188.95981139992364,188.95981139992364,188.95981139992364,188.95981139992364,188.96674319985323,189.95957429986447,189.95957429986447,190.57903999998234,z,1,0.6176330000162125,None,,,,,704236,001,2025-10-04_08h12.23.123,Motor Learning,2024.2.4,143.41667235551566,2025-10-04 08h12.32.724477 +0530,
-50,x,80,0,20,x,1,0.6335666999220848,None,20,0,80,0,,,,,190.5845402998384,,190.57931749988347,190.5845402998384,191.5705090998672,191.5705090998672,191.5705090998672,191.5705090998672,191.57758160005324,192.57039589993656,192.57039589993656,193.2105763000436,x,1,0.6335666999220848,None,,,,,704236,001,2025-10-04_08h12.23.123,Motor Learning,2024.2.4,143.41667235551566,2025-10-04 08h12.32.724477 +0530,
150,v,81,1,20,v,1,0.36945570004172623,None,20,1,81,1,,,,,193.21616739989258,,193.2109115999192,193.21616739989258,194.202106700046,194.202106700046,194.202106700046,194.202106700046,194.20905639999546,195.2019501000177,195.2019501000177,195.5775641000364,v,1,0.36945570004172623,None,,,,,704236,001,2025-10-04_08h12.23.123,Motor Learning,2024.2.4,143.41667235551566,2025-10-04 08h12.32.724477 +0530,
50,c,82,2,20,c,1,0.3671086998656392,None,20,2,82,2,,,,,195.58352690003812,,195.57787130004726,195.58352690003812,196.56983299995773,196.56983299995773,196.56983299995773,196.56983299995773,196.5767351000104,197.56965760001913,197.56965760001913,197.93899479997344,c,1,0.3671086998656392,None,,,,,704236,001,2025-10-04_08h12.23.123,Motor Learning,2024.2.4,143.41667235551566,2025-10-04 08h12.32.724477 +0530,
-150,z,83,3,20,z,1,0.20954239997081459,None,20,3,83,3,,,,,197.94488189998083,,197.9392975999508,197.94488189998083,198.93034549988806,198.93034549988806,198.93034549988806,198.93034549988806,198.93747580004856,199.93047769996338,199.93047769996338,200.14636949985288,z,1,0.20954239997081459,None,,,,,704236,001,2025-10-04_08h12.23.123,Motor Learning,2024.2.4,143.41667235551566,2025-10-04 08h12.32.724477 +0530,
-50,x,84,0,21,x,1,0.29581949999555945,None,21,0,84,0,,,,,200.1522422998678,,200.1468167998828,200.1522422998678,201.1385645000264,201.1385645000264,201.1385645000264,201.1385645000264,201.14549539983273,202.13794759986922,202.13794759986922,202.4381138999015,x,1,0.29581949999555945,None,,,,,704236,001,2025-10-04_08h12.23.123,Motor Learning,2024.2.4,143.41667235551566,2025-10-04 08h12.32.724477 +0530,
150,v,85,1,21,v,1,0.48408820014446974,None,21,1,85,1,,,,,202.4440112998709,,202.43851229990833,202.4440112998709,203.42989569995552,203.42989569995552,203.42989569995552,203.42989569995552,203.4366725999862,204.4296555998735,204.4296555998735,204.91660690004937,v,1,0.48408820014446974,None,,,,,704236,001,2025-10-04_08h12.23.123,Motor Learning,2024.2.4,143.41667235551566,2025-10-04 08h12.32.724477 +0530,
50,c,86,2,21,c,1,0.31239009997807443,None,21,2,86,2,,,,,204.92243389994837,,204.9170219998341,204.92243389994837,205.90841519995593,205.90841519995593,205.90841519995593,205.90841519995593,205.9154556998983,206.90866940002888,206.90866940002888,207.2233205998782,c,1,0.31239009997807443,None,,,,,704236,001,2025-10-04_08h12.23.123,Motor Learning,2024.2.4,143.41667235551566,2025-10-04 08h12.32.724477 +0530,
-150,z,87,3,21,z,1,0.36545950011350214,None,21,3,87,3,,,,,207.22782519995235,,207.22368399985135,207.22782519995235,208.21389969997108,208.21389969997108,208.21389969997108,208.21389969997108,208.2208163999021,209.213677899912,209.213677899912,209.58208799990825,z,1,0.36545950011350214,None,,,,,704236,001,2025-10-04_08h12.23.123,Motor Learning,2024.2.4,143.41667235551566,2025-10-04 08h12.32.724477 +0530,
-50,x,88,0,22,x,1,0.2703836001455784,None,22,0,88,0,,,,,209.5885274000466,,209.58227619994432,209.5885274000466,210.5752812998835,210.5752812998835,210.5752812998835,210.5752812998835,210.58147239987738,211.57438959996216,211.57438959996216,211.84691179986112,x,1,0.2703836001455784,None,,,,,704236,001,2025-10-04_08h12.23.123,Motor Learning,2024.2.4,143.41667235551566,2025-10-04 08h12.32.724477 +0530,
150,v,89,1,22,v,1,0.32289489987306297,None,22,1,89,1,,,,,211.85211790003814,,211.8473040999379,211.85211790003814,212.83832519990392,212.83832519990392,212.83832519990392,212.83832519990392,212.84529209998436,213.8379875998944,213.8379875998944,214.16573869995773,v,1,0.32289489987306297,None,,,,,704236,001,2025-10-04_08h12.23.123,Motor Learning,2024.2.4,143.41667235551566,2025-10-04 08h12.32.724477 +0530,
50,c,90,2,22,c,1,0.4743258999660611,None,22,2,90,2,,,,,214.17135169985704,,214.16603439999744,214.17135169985704,215.15725289983675,215.15725289983675,215.15725289983675,215.15725289983675,215.16398439998738,216.15702089993283,216.15702089993283,216.6374053999316,c,1,0.4743258999660611,None,,,,,704236,001,2025-10-04_08h12.23.123,Motor Learning,2024.2.4,143.41667235551566,2025-10-04 08h12.32.724477 +0530,
-150,z,91,3,22,z,1,0.26266909996047616,None,22,3,91,3,,,,,216.64306179992855,,216.63771059992723,216.64306179992855,217.6291723998729,217.6291723998729,217.6291723998729,217.6291723998729,217.63613209989853,218.62916859984398,218.62916859984398,218.89419059990905,z,1,0.26266909996047616,None,,,,,704236,001,2025-10-04_08h12.23.123,Motor Learning,2024.2.4,143.41667235551566,2025-10-04 08h12.32.724477 +0530,
-50,x,92,0,23,x,1,0.3737657000310719,None,23,0,92,0,,,,,218.89987839991227,,218.89450399996713,218.89987839991227,219.88579649990425,219.88579649990425,219.88579649990425,219.88579649990425,219.89281439990737,220.88544570002705,220.88544570002705,221.26309809996746,x,1,0.3737657000310719,None,,,,,704236,001,2025-10-04_08h12.23.123,Motor Learning,2024.2.4,143.41667235551566,2025-10-04 08h12.32.724477 +0530,
150,v,93,1,23,v,1,0.28397680004127324,None,23,1,93,1,,,,,221.26720510004088,,221.26357329986058,221.26720510004088,222.25421909987926,222.25421909987926,222.25421909987926,222.25421909987926,222.2605806000065,223.25333929993212,223.25333929993212,223.5399100999348,v,1,0.28397680004127324,None,,,,,704236,001,2025-10-04_08h12.23.123,Motor Learning,2024.2.4,143.41667235551566,2025-10-04 08h12.32.724477 +0530,
50,c,94,2,23,c,1,0.3289149000775069,None,23,2,94,2,,,,,223.5450540999882,,223.5402652998455,223.5450540999882,224.53100069984794,224.53100069984794,224.53100069984794,224.53100069984794,224.53793430002406,225.53094069985673,225.53094069985673,225.86564019997604,c,1,0.3289149000775069,None,,,,,704236,001,2025-10-04_08h12.23.123,Motor Learning,2024.2.4,143.41667235551566,2025-10-04 08h12.32.724477 +0530,
-150,z,95,3,23,z,1,0.3625684001017362,None,23,3,95,3,,,,,225.87101519992575,,225.86595449992456,225.87101519992575,226.8574709999375,226.8574709999375,226.8574709999375,226.8574709999375,226.86400999990292,227.8568879000377,227.8568879000377,228.2263104999438,z,1,0.3625684001017362,None,,,,,704236,001,2025-10-04_08h12.23.123,Motor Learning,2024.2.4,143.41667235551566,2025-10-04 08h12.32.724477 +0530,
-50,x,96,0,24,x,1,0.27014570008032024,None,24,0,96,0,,,,,228.2318255000282,,228.22663279995322,228.2318255000282,229.21768729994074,229.21768729994074,229.21768729994074,229.21768729994074,229.22468300000764,230.21769959991798,230.21769959991798,230.4897938000504,x,1,0.27014570008032024,None,,,,,704236,001,2025-10-04_08h12.23.123,Motor Learning,2024.2.4,143.41667235551566,2025-10-04 08h12.32.724477 +0530,
150,v,97,1,24,v,1,0.35215210006572306,None,24,1,97,1,,,,,230.4951418999117,,230.4901173999533,230.4951418999117,231.48122829990461,231.48122829990461,231.48122829990461,231.48122829990461,231.48817329993472,232.4811976000201,232.4811976000201,232.83681749994867,v,1,0.35215210006572306,None,,,,,704236,001,2025-10-04_08h12.23.123,Motor Learning,2024.2.4,143.41667235551566,2025-10-04 08h12.32.724477 +0530,
50,c,98,2,24,c,1,0.32210209988988936,None,24,2,98,2,,,,,232.8423965999391,,232.83725490001962,232.8423965999391,233.82804129994474,233.82804129994474,233.82804129994474,233.82804129994474,233.83503980003297,234.82772089983337,234.82772089983337,235.15569459996186,c,1,0.32210209988988936,None,,,,,704236,001,2025-10-04_08h12.23.123,Motor Learning,2024.2.4,143.41667235551566,2025-10-04 08h12.32.724477 +0530,
-150,z,99,3,24,z,1,0.3053168000187725,None,24,3,99,3,,,,,235.16137939994223,,235.15602989983745,235.16137939994223,236.1472845999524,236.1472845999524,236.1472845999524,236.1472845999524,236.15403490001336,237.1471166999545,237.1471166999545,237.45421899994835,z,1,0.3053168000187725,None,,,,,704236,001,2025-10-04_08h12.23.123,Motor Learning,2024.2.4,143.41667235551566,2025-10-04 08h12.32.724477 +0530,
-50,x,100,0,25,x,1,0.26580099994316697,None,25,0,100,0,,,,,237.45955029991455,,237.4546449999325,237.45955029991455,238.44561249995604,238.44561249995604,238.44561249995604,238.44561249995604,238.45259619993158,239.44545879983343,239.44545879983343,239.71729579987004,x,1,0.26580099994316697,None,,,,,704236,001,2025-10-04_08h12.23.123,Motor Learning,2024.2.4,143.41667235551566,2025-10-04 08h12.32.724477 +0530,
150,v,101,1,25,v,1,0.69551010010764,None,25,1,101,1,,,,,239.72292029997334,,239.71768260002136,239.72292029997334,240.70912109990604,240.70912109990604,240.70912109990604,240.70912109990604,240.7160670000594,241.70889979996718,241.70889979996718,242.4117625998333,v,1,0.69551010010764,None,,,,,704236,001,2025-10-04_08h12.23.123,Motor Learning,2024.2.4,143.41667235551566,2025-10-04 08h12.32.724477 +0530,
50,c,102,2,25,c,1,0.32083399989642203,None,25,2,102,2,,,,,242.41717220004648,,242.41211939998902,242.41717220004648,243.40317309997045,243.40317309997045,243.40317309997045,243.40317309997045,243.4106226998847,244.40314870001748,244.40314870001748,244.73022440006025,c,1,0.32083399989642203,None,,,,,704236,001,2025-10-04_08h12.23.123,Motor Learning,2024.2.4,143.41667235551566,2025-10-04 08h12.32.724477 +0530,
-150,z,103,3,25,z,1,0.4879254999104887,None,25,3,103,3,,,,,244.7362118999008,,244.73054619994946,244.7362118999008,245.72222819994204,245.72222819994204,245.72222819994204,245.72222819994204,245.72922299988568,246.7220820998773,246.7220820998773,247.21617159992456,z,1,0.4879254999104887,None,,,,,704236,001,2025-10-04_08h12.23.123,Motor Learning,2024.2.4,143.41667235551566,2025-10-04 08h12.32.724477 +0530,
-50,x,104,0,26,x,1,0.3181648999452591,None,26,0,104,0,,,,,247.2220739000477,,247.2164529999718,247.2220739000477,248.20806959993206,248.20806959993206,248.20806959993206,248.20806959993206,248.21507010003552,249.20799129991792,249.20799129991792,249.52893189992756,x,1,0.3181648999452591,None,,,,,704236,001,2025-10-04_08h12.23.123,Motor Learning,2024.2.4,143.41667235551566,2025-10-04 08h12.32.724477 +0530,
150,v,105,1,26,v,1,0.3900450000073761,None,26,1,105,1,,,,,249.53429599991068,,249.52924790000543,249.53429599991068,250.5202804999426,250.5202804999426,250.5202804999426,250.5202804999426,250.5271824998781,251.52059539989568,251.52059539989568,251.91699269996025,v,1,0.3900450000073761,None,,,,,704236,001,2025-10-04_08h12.23.123,Motor Learning,2024.2.4,143.41667235551566,2025-10-04 08h12.32.724477 +0530,
50,c,106,2,26,c,1,0.27104440005496144,None,26,2,106,2,,,,,251.92269299994223,,251.91728729987517,251.92269299994223,252.9088198998943,252.9088198998943,252.9088198998943,252.9088198998943,252.91585760004818,253.90863209986128,253.90863209986128,254.18230380001478,c,1,0.27104440005496144,None,,,,,704236,001,2025-10-04_08h12.23.123,Motor Learning,2024.2.4,143.41667235551566,2025-10-04 08h12.32.724477 +0530,
-150,z,107,3,26,z,1,0.31198560004122555,None,26,3,107,3,,,,,254.1866406998597,,254.18268019985408,254.1866406998597,255.17241159989499,255.17241159989499,255.17241159989499,255.17241159989499,255.17914299992844,256.17227099998854,256.17227099998854,256.48668450000696,z,1,0.31198560004122555,None,,,,,704236,001,2025-10-04_08h12.23.123,Motor Learning,2024.2.4,143.41667235551566,2025-10-04 08h12.32.724477 +0530,
-50,x,108,0,27,x,1,0.34391129994764924,None,27,0,108,0,,,,,256.4914321999531,,256.487061599968,256.4914321999531,257.47748550004326,257.47748550004326,257.47748550004326,257.47748550004326,257.48457570001483,258.47742939996533,258.47742939996533,258.8257623000536,x,1,0.34391129994764924,None,,,,,704236,001,2025-10-04_08h12.23.123,Motor Learning,2024.2.4,143.41667235551566,2025-10-04 08h12.32.724477 +0530,
150,v,109,1,27,v,1,0.3404737999662757,None,27,1,109,1,,,,,258.83137400005944,,258.8261746999342,258.83137400005944,259.81762810004875,259.81762810004875,259.81762810004875,259.81762810004875,259.82454820000567,260.81763969990425,260.81763969990425,261.1654703998938,v,1,0.3404737999662757,None,,,,,704236,001,2025-10-04_08h12.23.123,Motor Learning,2024.2.4,143.41667235551566,2025-10-04 08h12.32.724477 +0530,
50,c,110,2,27,c,1,0.4883476998656988,None,27,2,110,2,,,,,261.1713217999786,,261.1658669000026,261.1713217999786,262.1573445999529,262.1573445999529,262.1573445999529,262.1573445999529,262.1643962999806,263.15732689993456,263.15732689993456,263.6513560998719,c,1,0.4883476998656988,None,,,,,704236,001,2025-10-04_08h12.23.123,Motor Learning,2024.2.4,143.41667235551566,2025-10-04 08h12.32.724477 +0530,
-150,z,111,3,27,z,1,0.29427259997464716,None,27,3,111,3,,,,,263.6570643999148,,263.6516998000443,263.6570643999148,264.64315649983473,264.64315649983473,264.64315649983473,264.64315649983473,264.6501313999761,265.64308670000173,265.64308670000173,265.942910999991,z,1,0.29427259997464716,None,,,,,704236,001,2025-10-04_08h12.23.123,Motor Learning,2024.2.4,143.41667235551566,2025-10-04 08h12.32.724477 +0530,
-50,x,112,0,28,x,1,0.2768285998608917,None,28,0,112,0,,,,,265.9482851999346,,265.94322899985127,265.9482851999346,266.93467590003274,266.93467590003274,266.93467590003274,266.93467590003274,266.94153680000454,267.9344311999157,267.9344311999157,268.2131220998708,x,1,0.2768285998608917,None,,,,,704236,001,2025-10-04_08h12.23.123,Motor Learning,2024.2.4,143.41667235551566,2025-10-04 08h12.32.724477 +0530,
150,v,113,1,28,v,1,0.5624294001609087,None,28,1,113,1,,,,,268.21897729998454,,268.2133851000108,268.21897729998454,269.2050268999301,269.2050268999301,269.2050268999301,269.2050268999301,269.2120933998376,270.2050177999772,270.2050177999772,270.7743609000463,v,1,0.5624294001609087,None,,,,,704236,001,2025-10-04_08h12.23.123,Motor Learning,2024.2.4,143.41667235551566,2025-10-04 08h12.32.724477 +0530,
50,c,114,2,28,c,1,0.2909915999043733,None,28,2,114,2,,,,,270.7807444999926,,270.7745600999333,270.7807444999926,271.76711739995517,271.76711739995517,271.76711739995517,271.76711739995517,271.7741918999236,272.7669609999284,272.7669609999284,273.05960060004145,c,1,0.2909915999043733,None,,,,,704236,001,2025-10-04_08h12.23.123,Motor Learning,2024.2.4,143.41667235551566,2025-10-04 08h12.32.724477 +0530,
-150,z,115,3,28,z,1,0.29886980005539954,None,28,3,115,3,,,,,273.0657325000502,,273.05978009989485,273.0657325000502,274.0510140999686,274.0510140999686,274.0510140999686,274.0510140999686,274.05812579998747,275.0514324998949,275.0514324998949,275.35241459985264,z,1,0.29886980005539954,None,,,,,704236,001,2025-10-04_08h12.23.123,Motor Learning,2024.2.4,143.41667235551566,2025-10-04 08h12.32.724477 +0530,
-50,x,116,0,29,x,1,0.3327472999226302,None,29,0,116,0,,,,,275.3568245000206,,275.35274220001884,275.3568245000206,276.34297450003214,276.34297450003214,276.34297450003214,276.34297450003214,276.34981849999167,277.34254290000536,277.34254290000536,277.6778810999822,x,1,0.3327472999226302,None,,,,,704236,001,2025-10-04_08h12.23.123,Motor Learning,2024.2.4,143.41667235551566,2025-10-04 08h12.32.724477 +0530,
150,v,117,1,29,v,1,0.438669600058347,None,29,1,117,1,,,,,277.68297289987095,,277.678208099911,277.68297289987095,278.66891369991936,278.66891369991936,278.66891369991936,278.66891369991936,278.6758497999981,279.66870109993033,279.66870109993033,280.11429169983603,v,1,0.438669600058347,None,,,,,704236,001,2025-10-04_08h12.23.123,Motor Learning,2024.2.4,143.41667235551566,2025-10-04 08h12.32.724477 +0530,
50,c,118,2,29,c,1,0.36882420000620186,None,29,2,118,2,,,,,280.1200059999246,,280.1146501998883,280.1200059999246,281.1062280999031,281.1062280999031,281.1062280999031,281.1062280999031,281.11274789995514,282.10597419994883,282.10597419994883,282.48197619989514,c,1,0.36882420000620186,None,,,,,704236,001,2025-10-04_08h12.23.123,Motor Learning,2024.2.4,143.41667235551566,2025-10-04 08h12.32.724477 +0530,
-150,z,119,3,29,z,1,0.3362110999878496,None,29,3,119,3,,,,,282.48789269989356,,282.48234359989874,282.48789269989356,283.4739381999243,283.4739381999243,283.4739381999243,283.4739381999243,283.4807973999996,284.47377229994163,284.47377229994163,284.81500869989395,z,1,0.3362110999878496,None,,,,,704236,001,2025-10-04_08h12.23.123,Motor Learning,2024.2.4,143.41667235551566,2025-10-04 08h12.32.724477 +0530,
-50,x,120,0,30,x,1,0.3089509999845177,None,30,0,120,0,,,,,284.82064529997297,,284.8153514000587,284.82064529997297,285.80687259999104,285.80687259999104,285.80687259999104,285.80687259999104,285.8138516000472,286.8067292000633,286.8067292000633,287.1203143000603,x,1,0.3089509999845177,None,,,,,704236,001,2025-10-04_08h12.23.123,Motor Learning,2024.2.4,143.41667235551566,2025-10-04 08h12.32.724477 +0530,
150,v,121,1,30,v,1,0.318268199916929,None,30,1,121,1,,,,,287.12598269991577,,287.1207099999301,287.12598269991577,288.1120631999802,288.1120631999802,288.1120631999802,288.1120631999802,288.1191203999333,289.1118512998801,289.1118512998801,289.43258819985203,v,1,0.318268199916929,None,,,,,704236,001,2025-10-04_08h12.23.123,Motor Learning,2024.2.4,143.41667235551566,2025-10-04 08h12.32.724477 +0530,
50,c,122,2,30,c,1,0.2937837999779731,None,30,2,122,2,,,,,289.43828430003487,,289.43294469988905,289.43828430003487,290.42411260004155,290.42411260004155,290.42411260004155,290.42411260004155,290.4309854998719,291.42399919987656,291.42399919987656,291.7240555000026,c,1,0.2937837999779731,None,,,,,704236,001,2025-10-04_08h12.23.123,Motor Learning,2024.2.4,143.41667235551566,2025-10-04 08h12.32.724477 +0530,
-150,z,123,3,30,z,1,0.3334681000560522,None,30,3,123,3,,,,,291.72968459990807,,291.72438929998316,291.72968459990807,292.7156189000234,292.7156189000234,292.7156189000234,292.7156189000234,292.7232965999283,293.71554629993625,293.71554629993625,294.0507229999639,z,1,0.3334681000560522,None,,,,,704236,001,2025-10-04_08h12.23.123,Motor Learning,2024.2.4,143.41667235551566,2025-10-04 08h12.32.724477 +0530,
-50,x,124,0,31,x,1,0.34744359995238483,None,31,0,124,0,,,,,294.0558304998558,,294.05112649989314,294.0558304998558,295.0416607998777,295.0416607998777,295.0416607998777,295.0416607998777,295.0485053998418,296.0417208999861,296.0417208999861,296.39647729997523,x,1,0.34744359995238483,None,,,,,704236,001,2025-10-04_08h12.23.123,Motor Learning,2024.2.4,143.41667235551566,2025-10-04 08h12.32.724477 +0530,
150,v,125,1,31,v,1,0.3089343998581171,None,31,1,125,1,,,,,296.40252049989067,,296.39678019983694,296.40252049989067,297.3883766999934,297.3883766999934,297.3883766999934,297.3883766999934,297.3953567999415,298.38837859989144,298.38837859989144,298.7019764999859,v,1,0.3089343998581171,None,,,,,704236,001,2025-10-04_08h12.23.123,Motor Learning,2024.2.4,143.41667235551566,2025-10-04 08h12.32.724477 +0530,
50,c,126,2,31,c,1,0.3207914000377059,None,31,2,126,2,,,,,298.707568799844,,298.70239189988934,298.707568799844,299.69357919995673,299.69357919995673,299.69357919995673,299.69357919995673,299.7007368998602,300.6934099998325,300.6934099998325,301.0206327000633,c,1,0.3207914000377059,None,,,,,704236,001,2025-10-04_08h12.23.123,Motor Learning,2024.2.4,143.41667235551566,2025-10-04 08h12.32.724477 +0530,
-150,z,127,3,31,z,1,0.5227145999670029,None,31,3,127,3,,,,,301.0265287999064,,301.02095769997686,301.0265287999064,302.0128792000469,302.0128792000469,302.0128792000469,302.0128792000469,302.0198144998867,303.01262569986284,303.01262569986284,303.5417353999801,z,1,0.5227145999670029,None,,,,,704236,001,2025-10-04_08h12.23.123,Motor Learning,2024.2.4,143.41667235551566,2025-10-04 08h12.32.724477 +0530,
-50,x,128,0,32,x,1,0.27708519995212555,None,32,0,128,0,,,,,303.54727089987136,,303.54217669996433,303.54727089987136,304.5333479999099,304.5333479999099,304.5333479999099,304.5333479999099,304.5407689998392,305.5331822000444,305.5331822000444,305.81299839983694,x,1,0.27708519995212555,None,,,,,704236,001,2025-10-04_08h12.23.123,Motor Learning,2024.2.4,143.41667235551566,2025-10-04 08h12.32.724477 +0530,
150,v,129,1,32,v,1,0.2738129000645131,None,32,1,129,1,,,,,305.8177787999157,,305.81330499984324,305.8177787999157,306.80378149985336,306.80378149985336,306.80378149985336,306.80378149985336,306.8108267998323,307.8036678999197,307.8036678999197,308.0828738999553,v,1,0.2738129000645131,None,,,,,704236,001,2025-10-04_08h12.23.123,Motor Learning,2024.2.4,143.41667235551566,2025-10-04 08h12.32.724477 +0530,
50,c,130,2,32,c,1,0.2983544999733567,None,32,2,130,2,,,,,308.0883565999102,,308.0832334998995,308.0883565999102,309.074349100003,309.074349100003,309.074349100003,309.074349100003,309.0812768000178,310.07410970004275,310.07410970004275,310.3744172998704,c,1,0.2983544999733567,None,,,,,704236,001,2025-10-04_08h12.23.123,Motor Learning,2024.2.4,143.41667235551566,2025-10-04 08h12.32.724477 +0530,
-150,z,131,3,32,z,1,0.7046145000495017,None,32,3,131,3,,,,,310.3794865999371,,310.37479929998517,310.3794865999371,311.3657481998671,311.3657481998671,311.3657481998671,311.3657481998671,311.3727216999978,312.3655294000637,312.3655294000637,313.0747905999888,z,1,0.7046145000495017,None,,,,,704236,001,2025-10-04_08h12.23.123,Motor Learning,2024.2.4,143.41667235551566,2025-10-04 08h12.32.724477 +0530,
-50,x,132,0,33,x,1,0.2773320998530835,None,33,0,132,0,,,,,313.0806819999125,,313.07506749988534,313.0806819999125,314.06675609992817,314.06675609992817,314.06675609992817,314.06675609992817,314.07360360003076,315.0662881999742,315.0662881999742,315.34547689999454,x,1,0.2773320998530835,None,,,,,704236,001,2025-10-04_08h12.23.123,Motor Learning,2024.2.4,143.41667235551566,2025-10-04 08h12.32.724477 +0530,
150,v,133,1,33,v,1,0.30471220007166266,None,33,1,133,1,,,,,315.3511018999852,,315.345774800051,315.3511018999852,316.33715649996884,316.33715649996884,316.33715649996884,316.33715649996884,316.3441508000251,317.3370789999608,317.3370789999608,317.6439071998466,v,1,0.30471220007166266,None,,,,,704236,001,2025-10-04_08h12.23.123,Motor Learning,2024.2.4,143.41667235551566,2025-10-04 08h12.32.724477 +0530,
50,c,134,2,33,c,1,0.2650439999997616,None,33,2,134,2,,,,,317.6497783998493,,317.6442493998911,317.6497783998493,318.63541639992036,318.63541639992036,318.63541639992036,318.63541639992036,318.64239289984107,319.63508139993064,319.63508139993064,319.90719759999774,c,1,0.2650439999997616,None,,,,,704236,001,2025-10-04_08h12.23.123,Motor Learning,2024.2.4,143.41667235551566,2025-10-04 08h12.32.724477 +0530,
-150,z,135,3,33,z,1,0.3655795000959188,None,33,3,135,3,,,,,319.91281419992447,,319.9075176999904,319.91281419992447,320.8990384999197,320.8990384999197,320.8990384999197,320.8990384999197,320.90597769990563,321.89882929995656,321.89882929995656,322.2671180998441,z,1,0.3655795000959188,None,,,,,704236,001,2025-10-04_08h12.23.123,Motor Learning,2024.2.4,143.41667235551566,2025-10-04 08h12.32.724477 +0530,
-50,x,136,0,34,x,1,0.39431479992344975,None,34,0,136,0,,,,,322.2733548998367,,322.26732370001264,322.2733548998367,323.25968399993144,323.25968399993144,323.25968399993144,323.25968399993144,323.2666168999858,324.2596289999783,324.2596289999783,324.6567436000332,x,1,0.39431479992344975,None,,,,,704236,001,2025-10-04_08h12.23.123,Motor Learning,2024.2.4,143.41667235551566,2025-10-04 08h12.32.724477 +0530,
150,v,137,1,34,v,1,0.27711409982293844,None,34,1,137,1,,,,,324.66199030005373,,324.65715830004774,324.66199030005373,325.6483364000451,325.6483364000451,325.6483364000451,325.6483364000451,325.6551846000366,326.6481730998494,326.6481730998494,326.92774689989164,v,1,0.27711409982293844,None,,,,,704236,001,2025-10-04_08h12.23.123,Motor Learning,2024.2.4,143.41667235551566,2025-10-04 08h12.32.724477 +0530,
50,c,138,2,34,c,1,0.2767403000034392,None,34,2,138,2,,,,,326.93277699989267,,326.92811460001394,326.93277699989267,327.9185325000435,327.9185325000435,327.9185325000435,327.9185325000435,327.92564400006086,328.91862239991315,328.91862239991315,329.1976413000375,c,1,0.2767403000034392,None,,,,,704236,001,2025-10-04_08h12.23.123,Motor Learning,2024.2.4,143.41667235551566,2025-10-04 08h12.32.724477 +0530,
-150,z,139,3,34,z,1,0.3416995999868959,None,34,3,139,3,,,,,329.2030803998932,,329.1979663998354,329.2030803998932,330.1890612000134,330.1890612000134,330.1890612000134,330.1890612000134,330.19616639986634,331.1891125999391,331.1891125999391,331.53688589995727,z,1,0.3416995999868959,None,,,,,704236,001,2025-10-04_08h12.23.123,Motor Learning,2024.2.4,143.41667235551566,2025-10-04 08h12.32.724477 +0530,
-50,x,140,0,35,x,1,0.3026134001556784,None,35,0,140,0,,,,,331.54307879996486,,331.53718400001526,331.54307879996486,332.5291925999336,332.5291925999336,332.5291925999336,332.5291925999336,332.5362335999962,333.5289654999506,333.5289654999506,333.8355109000113,x,1,0.3026134001556784,None,,,,,704236,001,2025-10-04_08h12.23.123,Motor Learning,2024.2.4,143.41667235551566,2025-10-04 08h12.32.724477 +0530,
150,v,141,1,35,v,1,0.29983099992386997,None,35,1,141,1,,,,,333.8414700999856,,333.83579219994135,333.8414700999856,334.82745729992166,334.82745729992166,334.82745729992166,334.82745729992166,334.83439740003087,335.82729539996944,335.82729539996944,336.1338861999102,v,1,0.29983099992386997,None,,,,,704236,001,2025-10-04_08h12.23.123,Motor Learning,2024.2.4,143.41667235551566,2025-10-04 08h12.32.724477 +0530,
50,c,142,2,35,c,1,0.4005263999570161,None,35,2,142,2,,,,,336.13964319997467,,336.1342076000292,336.13964319997467,337.1257571999449,337.1257571999449,337.1257571999449,337.1257571999449,337.1326537998393,338.1256039000582,338.1256039000582,338.5298007999081,c,1,0.4005263999570161,None,,,,,704236,001,2025-10-04_08h12.23.123,Motor Learning,2024.2.4,143.41667235551566,2025-10-04 08h12.32.724477 +0530,
-150,z,143,3,35,z,1,0.31422100006602705,None,35,3,143,3,,,,,338.53513259999454,,338.53018909995444,338.53513259999454,339.52114009996876,339.52114009996876,339.52114009996876,339.52114009996876,339.5282352999784,340.52098260005005,340.52098260005005,340.84168630000204,z,1,0.31422100006602705,None,,,,,704236,001,2025-10-04_08h12.23.123,Motor Learning,2024.2.4,143.41667235551566,2025-10-04 08h12.32.724477 +0530,
-50,x,144,0,36,x,1,0.3499769999179989,None,36,0,144,0,,,,,340.84740539989434,,340.84199719992466,340.84740539989434,341.83348049991764,341.83348049991764,341.83348049991764,341.83348049991764,341.840378300054,342.83329289988615,342.83329289988615,343.18867679988034,x,1,0.3499769999179989,None,,,,,704236,001,2025-10-04_08h12.23.123,Motor Learning,2024.2.4,143.41667235551566,2025-10-04 08h12.32.724477 +0530,
150,v,145,1,36,v,1,0.30678600003011525,None,36,1,145,1,,,,,343.19427199987695,,343.18904810003005,343.19427199987695,344.1804410999175,344.1804410999175,344.1804410999175,344.1804410999175,344.18730530003086,345.18032169993967,345.18032169993967,345.49345429986715,v,1,0.30678600003011525,None,,,,,704236,001,2025-10-04_08h12.23.123,Motor Learning,2024.2.4,143.41667235551566,2025-10-04 08h12.32.724477 +0530,
50,c,146,2,36,c,1,0.4842916000634432,None,36,2,146,2,,,,,345.50043529993854,,345.49376400001347,345.50043529993854,346.48562969989143,346.48562969989143,346.48562969989143,346.48562969989143,346.4925372998696,347.48640089994296,347.48640089994296,347.9725549998693,c,1,0.4842916000634432,None,,,,,704236,001,2025-10-04_08h12.23.123,Motor Learning,2024.2.4,143.41667235551566,2025-10-04 08h12.32.724477 +0530,
-150,z,147,3,36,z,1,0.2999908998608589,None,36,3,147,3,,,,,347.97824559989385,,347.9728442998603,347.97824559989385,348.9643957000226,348.9643957000226,348.9643957000226,348.9643957000226,348.9712354999501,349.96425760001875,349.96425760001875,350.2713090998586,z,1,0.2999908998608589,None,,,,,704236,001,2025-10-04_08h12.23.123,Motor Learning,2024.2.4,143.41667235551566,2025-10-04 08h12.32.724477 +0530,
-50,x,148,0,37,x,1,0.2584599000401795,None,37,0,148,0,,,,,350.27645999984816,,350.27168220002204,350.27645999984816,351.26278460002504,351.26278460002504,351.26278460002504,351.26278460002504,351.2694109999575,352.262210899964,352.262210899964,352.527744299965,x,1,0.2584599000401795,None,,,,,704236,001,2025-10-04_08h12.23.123,Motor Learning,2024.2.4,143.41667235551566,2025-10-04 08h12.32.724477 +0530,
150,v,149,1,37,v,1,0.3064363000448793,None,37,1,149,1,,,,,352.53307230002247,,352.5280968998559,352.53307230002247,353.5189475999214,353.5189475999214,353.5189475999214,353.5189475999214,353.5262917999644,354.5190498000011,354.5190498000011,354.83300419989973,v,1,0.3064363000448793,None,,,,,704236,001,2025-10-04_08h12.23.123,Motor Learning,2024.2.4,143.41667235551566,2025-10-04 08h12.32.724477 +0530,
50,c,150,2,37,c,1,0.3901895999442786,None,37,2,150,2,,,,,354.83840640005656,,354.83333689998835,354.83840640005656,355.8243646000046,355.8243646000046,355.8243646000046,355.8243646000046,355.83137400005944,356.82431479985826,356.82431479985826,357.2206806000322,c,1,0.3901895999442786,None,,,,,704236,001,2025-10-04_08h12.23.123,Motor Learning,2024.2.4,143.41667235551566,2025-10-04 08h12.32.724477 +0530,
-150,z,151,3,37,z,1,0.36828200006857514,None,37,3,151,3,,,,,357.22675410006195,,357.2209967998788,357.22675410006195,358.2129877000116,358.2129877000116,358.2129877000116,358.2129877000116,358.22001269995235,359.21268330002204,359.21268330002204,359.582084099995,z,1,0.36828200006857514,None,,,,,704236,001,2025-10-04_08h12.23.123,Motor Learning,2024.2.4,143.41667235551566,2025-10-04 08h12.32.724477 +0530,
-50,x,152,0,38,x,1,0.32978060003370047,None,38,0,152,0,,,,,359.58795439987443,,359.5823456000071,359.58795439987443,360.57379850000143,360.57379850000143,360.57379850000143,360.57379850000143,360.5805867998861,361.57370659988374,361.57370659988374,361.90780809987336,x,1,0.32978060003370047,None,,,,,704236,001,2025-10-04_08h12.23.123,Motor Learning,2024.2.4,143.41667235551566,2025-10-04 08h12.32.724477 +0530,
150,v,153,1,38,v,1,0.284433500142768,None,38,1,153,1,,,,,361.9136427999474,,361.9080995998811,361.9136427999474,362.8995683998801,362.8995683998801,362.8995683998801,362.8995683998801,362.9066186998971,363.89972419990227,363.89972419990227,364.18601529998705,v,1,0.284433500142768,None,,,,,704236,001,2025-10-04_08h12.23.123,Motor Learning,2024.2.4,143.41667235551566,2025-10-04 08h12.32.724477 +0530,
50,c,154,2,38,c,1,0.25701649999246,None,38,2,154,2,,,,,364.1912433998659,,364.186448500026,364.1912433998659,365.1772220998537,365.1772220998537,365.1772220998537,365.1772220998537,365.1843349998817,366.1771193998866,366.1771193998866,366.4360070999246,c,1,0.25701649999246,None,,,,,704236,001,2025-10-04_08h12.23.123,Motor Learning,2024.2.4,143.41667235551566,2025-10-04 08h12.32.724477 +0530,
-150,z,155,3,38,z,1,0.34633089997805655,None,38,3,155,3,,,,,366.4407333000563,,366.43640620005317,366.4407333000563,367.4269127000589,367.4269127000589,367.4269127000589,367.4269127000589,367.43397350003943,368.42684730002657,368.42684730002657,368.77571940002963,z,1,0.34633089997805655,None,,,,,704236,001,2025-10-04_08h12.23.123,Motor Learning,2024.2.4,143.41667235551566,2025-10-04 08h12.32.724477 +0530,
-50,x,156,0,39,x,1,0.2356887999922037,None,39,0,156,0,,,,,368.7806484999601,,368.77601549983956,368.7806484999601,369.76675909990445,369.76675909990445,369.76675909990445,369.76675909990445,369.7737952999305,370.76663749990985,370.76663749990985,371.003384700045,x,1,0.2356887999922037,None,,,,,704236,001,2025-10-04_08h12.23.123,Motor Learning,2024.2.4,143.41667235551566,2025-10-04 08h12.32.724477 +0530,
150,v,157,1,39,v,1,0.3421912998892367,None,39,1,157,1,,,,,371.0094331,,371.0035687000491,371.0094331,371.99572440003976,371.99572440003976,371.99572440003976,371.99572440003976,372.00272580003366,372.99549519992433,372.99549519992433,373.34372480004095,v,1,0.3421912998892367,None,,,,,704236,001,2025-10-04_08h12.23.123,Motor Learning,2024.2.4,143.41667235551566,2025-10-04 08h12.32.724477 +0530,
50,c,158,2,39,c,1,0.28063759999349713,None,39,2,158,2,,,,,373.3494263999164,,373.34417599998415,373.3494263999164,374.3358032000251,374.3358032000251,374.3358032000251,374.3358032000251,374.34277680004016,375.33547060005367,375.33547060005367,375.62143229995854,c,1,0.28063759999349713,None,,,,,704236,001,2025-10-04_08h12.23.123,Motor Learning,2024.2.4,143.41667235551566,2025-10-04 08h12.32.724477 +0530,
-150,z,159,3,39,z,1,0.3245428001973778,None,39,3,159,3,,,,,375.6272503999062,,375.6217610000167,375.6272503999062,376.6132193999365,376.6132193999365,376.6132193999365,376.6132193999365,376.62030609999783,377.612925699912,377.612925699912,377.94065060000867,z,1,0.3245428001973778,None,,,,,704236,001,2025-10-04_08h12.23.123,Motor Learning,2024.2.4,143.41667235551566,2025-10-04 08h12.32.724477 +0530,
-50,x,160,0,40,x,1,0.3476711001712829,None,40,0,160,0,,,,,377.9464030000381,,377.94099220004864,377.9464030000381,378.93225259985775,378.93225259985775,378.93225259985775,378.93225259985775,378.93912780005485,379.93212999985553,379.93212999985553,380.2869467998389,x,1,0.3476711001712829,None,,,,,704236,001,2025-10-04_08h12.23.123,Motor Learning,2024.2.4,143.41667235551566,2025-10-04 08h12.32.724477 +0530,
150,v,161,1,40,v,1,0.3539950998965651,None,40,1,161,1,,,,,380.2930435000453,,380.28726759995334,380.2930435000453,381.27930140006356,381.27930140006356,381.27930140006356,381.27930140006356,381.2861428000033,382.2788066000212,382.2788066000212,382.6352494000457,v,1,0.3539950998965651,None,,,,,704236,001,2025-10-04_08h12.23.123,Motor Learning,2024.2.4,143.41667235551566,2025-10-04 08h12.32.724477 +0530,
50,c,162,2,40,c,1,0.41096369992010295,None,40,2,162,2,,,,,382.6398418999743,,382.63560369983315,382.6398418999743,383.62603479996324,383.62603479996324,383.62603479996324,383.62603479996324,383.6330192000605,384.6259911998641,384.6259911998641,385.0440915999934,c,1,0.41096369992010295,None,,,,,704236,001,2025-10-04_08h12.23.123,Motor Learning,2024.2.4,143.41667235551566,2025-10-04 08h12.32.724477 +0530,
-150,z,163,3,40,z,1,0.3648963999003172,None,40,3,163,3,,,,,385.04943929985166,,385.04441379988566,385.04943929985166,386.0353255998343,386.0353255998343,386.0353255998343,386.0353255998343,386.0423759999685,387.03519439999945,387.03519439999945,387.4042158999946,z,1,0.3648963999003172,None,,,,,704236,001,2025-10-04_08h12.23.123,Motor Learning,2024.2.4,143.41667235551566,2025-10-04 08h12.32.724477 +0530,
-50,x,164,0,41,x,1,0.4130851998925209,None,41,0,164,0,,,,,387.4101797998883,,387.4045277000405,387.4101797998883,388.39613489992917,388.39613489992917,388.39613489992917,388.39613489992917,388.4032039998565,389.3960237998981,389.3960237998981,389.8134590999689,x,1,0.4130851998925209,None,,,,,704236,001,2025-10-04_08h12.23.123,Motor Learning,2024.2.4,143.41667235551566,2025-10-04 08h12.32.724477 +0530,
150,v,165,1,41,v,1,0.3458238001912832,None,41,1,165,1,,,,,389.81941009988077,,389.81378580001183,389.81941009988077,390.80545810004696,390.80545810004696,390.80545810004696,390.80545810004696,390.8125054000411,391.8053172000218,391.8053172000218,392.15337849990465,v,1,0.3458238001912832,None,,,,,704236,001,2025-10-04_08h12.23.123,Motor Learning,2024.2.4,143.41667235551566,2025-10-04 08h12.32.724477 +0530,
50,c,166,2,41,c,1,0.3105129001196474,None,41,2,166,2,,,,,392.1593843998853,,392.1536774998531,392.1593843998853,393.1453927999828,393.1453927999828,393.1453927999828,393.1453927999828,393.1524505999405,394.1451254999265,394.1451254999265,394.4589436999522,c,1,0.3105129001196474,None,,,,,704236,001,2025-10-04_08h12.23.123,Motor Learning,2024.2.4,143.41667235551566,2025-10-04 08h12.32.724477 +0530,
-150,z,167,3,41,z,1,0.6283060000278056,None,41,3,167,3,,,,,394.46476419991814,,394.45927789993584,394.46476419991814,395.45056779985316,395.45056779985316,395.45056779985316,395.45056779985316,395.457606599899,396.45061179995537,396.45061179995537,397.0831692998763,z,1,0.6283060000278056,None,,,,,704236,001,2025-10-04_08h12.23.123,Motor Learning,2024.2.4,143.41667235551566,2025-10-04 08h12.32.724477 +0530,
-50,x,168,0,42,x,1,0.3048523999750614,None,42,0,168,0,,,,,397.08931889990345,,397.0834041000344,397.08931889990345,398.07537089986727,398.07537089986727,398.07537089986727,398.07537089986727,398.0822105000261,399.075265099993,399.075265099993,399.382722399896,x,1,0.3048523999750614,None,,,,,704236,001,2025-10-04_08h12.23.123,Motor Learning,2024.2.4,143.41667235551566,2025-10-04 08h12.32.724477 +0530,
150,v,169,1,42,v,1,0.29173850012011826,None,42,1,169,1,,,,,399.38753619999625,,399.38313729991205,399.38753619999625,400.37374909990467,400.37374909990467,400.37374909990467,400.37374909990467,400.3807007998694,401.3731271000579,401.3731271000579,401.66671709995717,v,1,0.29173850012011826,None,,,,,704236,001,2025-10-04_08h12.23.123,Motor Learning,2024.2.4,143.41667235551566,2025-10-04 08h12.32.724477 +0530,
50,c,170,2,42,c,1,0.27778099989518523,None,42,2,170,2,,,,,401.6721476998646,,401.66706650005654,401.6721476998646,402.6579666000325,402.6579666000325,402.6579666000325,402.6579666000325,402.66488870000467,403.6576415998861,403.6576415998861,403.93720649997704,c,1,0.27778099989518523,None,,,,,704236,001,2025-10-04_08h12.23.123,Motor Learning,2024.2.4,143.41667235551566,2025-10-04 08h12.32.724477 +0530,
-150,z,171,3,42,z,1,0.28608260001055896,None,42,3,171,3,,,,,403.9423825000413,,403.937610700028,403.9423825000413,404.9285710998811,404.9285710998811,404.9285710998811,404.9285710998811,404.9354133999441,405.92840510001406,405.92840510001406,406.2215615999885,z,1,0.28608260001055896,None,,,,,704236,001,2025-10-04_08h12.23.123,Motor Learning,2024.2.4,143.41667235551566,2025-10-04 08h12.32.724477 +0530,
-50,x,172,0,43,x,1,0.3230109999421984,None,43,0,172,0,,,,,406.2268669998739,,406.22193640004843,406.2268669998739,407.21298209996894,407.21298209996894,407.21298209996894,407.21298209996894,407.2198713000398,408.2127821999602,408.2127821999602,408.54086279985495,x,1,0.3230109999421984,None,,,,,704236,001,2025-10-04_08h12.23.123,Motor Learning,2024.2.4,143.41667235551566,2025-10-04 08h12.32.724477 +0530,
150,v,173,1,43,v,1,0.31564090005122125,None,43,1,173,1,,,,,408.5460793999955,,408.54122380004264,408.5460793999955,409.53201069985516,409.53201069985516,409.53201069985516,409.53201069985516,409.5391865998972,410.5318897999823,410.5318897999823,410.85251419991255,v,1,0.31564090005122125,None,,,,,704236,001,2025-10-04_08h12.23.123,Motor Learning,2024.2.4,143.41667235551566,2025-10-04 08h12.32.724477 +0530,
50,c,174,2,43,c,1,0.5337376000825316,None,43,2,174,2,,,,,410.8580767000094,,410.8528350999113,410.8580767000094,411.84416670002975,411.84416670002975,411.84416670002975,411.84416670002975,411.8512198999524,412.8440855999943,412.8440855999943,413.37971020000987,c,1,0.5337376000825316,None,,,,,704236,001,2025-10-04_08h12.23.123,Motor Learning,2024.2.4,143.41667235551566,2025-10-04 08h12.32.724477 +0530,
-150,z,175,3,43,z,1,0.8468934998381883,None,43,3,175,3,,,,,413.38556699990295,,413.3799938999582,413.38556699990295,414.37162450002506,414.37162450002506,414.37162450002506,414.37162450002506,414.37854649988003,415.37145809992217,415.37145809992217,416.22048459993675,z,1,0.8468934998381883,None,,,,,704236,001,2025-10-04_08h12.23.123,Motor Learning,2024.2.4,143.41667235551566,2025-10-04 08h12.32.724477 +0530,
-50,x,176,0,44,x,1,0.34789959993213415,None,44,0,176,0,,,,,416.2255516999867,,416.2207887999248,416.2255516999867,417.21153109986335,417.21153109986335,417.21153109986335,417.21153109986335,417.2184365000576,418.2116695998702,418.2116695998702,418.5661661999766,x,1,0.34789959993213415,None,,,,,704236,001,2025-10-04_08h12.23.123,Motor Learning,2024.2.4,143.41667235551566,2025-10-04 08h12.32.724477 +0530,
150,v,177,1,44,v,1,0.7558281999081373,None,44,1,177,1,,,,,418.57231149985455,,418.5664866999723,418.57231149985455,419.55837909993716,419.55837909993716,419.55837909993716,419.55837909993716,419.565307199955,420.55822180001996,420.55822180001996,421.31718979985453,v,1,0.7558281999081373,None,,,,,704236,001,2025-10-04_08h12.23.123,Motor Learning,2024.2.4,143.41667235551566,2025-10-04 08h12.32.724477 +0530,
50,c,178,2,44,c,1,0.535702999914065,None,44,2,178,2,,,,,421.32188589987345,,421.31756079988554,421.32188589987345,422.3079127999954,422.3079127999954,422.3079127999954,422.3079127999954,422.3149586999789,423.307661900064,423.307661900064,423.8503386999946,c,1,0.535702999914065,None,,,,,704236,001,2025-10-04_08h12.23.123,Motor Learning,2024.2.4,143.41667235551566,2025-10-04 08h12.32.724477 +0530,
-150,z,179,3,44,z,1,0.277948500122875,None,44,3,179,3,,,,,423.85623129992746,,423.85065919999033,423.85623129992746,424.8422880000435,424.8422880000435,424.8422880000435,424.8422880000435,424.8491229999345,425.84213949996047,425.84213949996047,426.1218375999015,z,1,0.277948500122875,None,,,,,704236,001,2025-10-04_08h12.23.123,Motor Learning,2024.2.4,143.41667235551566,2025-10-04 08h12.32.724477 +0530,
-50,x,180,0,45,x,1,0.2853653999045491,None,45,0,180,0,,,,,426.1268144999631,,426.1223265998997,426.1268144999631,427.11264769989066,427.11264769989066,427.11264769989066,427.11264769989066,427.1197040998377,428.11251339991577,428.11251339991577,428.40026500006206,x,1,0.2853653999045491,None,,,,,704236,001,2025-10-04_08h12.23.123,Motor Learning,2024.2.4,143.41667235551566,2025-10-04 08h12.32.724477 +0530,
150,v,181,1,45,v,1,0.3773185999598354,None,45,1,181,1,,,,,428.4045188999735,,428.4006546000019,428.4045188999735,429.390303599881,429.390303599881,429.390303599881,429.390303599881,429.3972620998975,430.39007089985535,430.39007089985535,430.7733181999065,v,1,0.3773185999598354,None,,,,,704236,001,2025-10-04_08h12.23.123,Motor Learning,2024.2.4,143.41667235551566,2025-10-04 08h12.32.724477 +0530,
50,c,182,2,45,c,1,0.5411162998061627,None,45,2,182,2,,,,,430.77888510003686,,430.7736698000226,430.77888510003686,431.7649081000127,431.7649081000127,431.7649081000127,431.7649081000127,431.7718527999241,432.7647517998703,432.7647517998703,433.3079498000443,c,1,0.5411162998061627,None,,,,,704236,001,2025-10-04_08h12.23.123,Motor Learning,2024.2.4,143.41667235551566,2025-10-04 08h12.32.724477 +0530,
-150,z,183,3,45,z,1,0.34244220005348325,None,45,3,183,3,,,,,433.31319739995524,,433.3083256999962,433.31319739995524,434.2992819000501,434.2992819000501,434.2992819000501,434.2992819000501,434.3062648999039,435.29892480000854,435.29892480000854,435.6475543999113,z,1,0.34244220005348325,None,,,,,704236,001,2025-10-04_08h12.23.123,Motor Learning,2024.2.4,143.41667235551566,2025-10-04 08h12.32.724477 +0530,
-50,x,184,0,46,x,1,0.348623399855569,None,46,0,184,0,,,,,435.65308950003237,,435.6479686999228,435.65308950003237,436.6393538999837,436.6393538999837,436.6393538999837,436.6393538999837,436.64626199984923,437.6391214998439,437.6391214998439,437.99421549984254,x,1,0.348623399855569,None,,,,,704236,001,2025-10-04_08h12.23.123,Motor Learning,2024.2.4,143.41667235551566,2025-10-04 08h12.32.724477 +0530,
150,v,185,1,46,v,1,1.0134847001172602,None,46,1,185,1,,,,,437.9997217999771,,437.99452439998277,437.9997217999771,438.9859831999056,438.9859831999056,438.9859831999056,438.9859831999056,438.99292759993114,439.985691400012,439.985691400012,441.0017204999458,v,1,1.0134847001172602,None,,,,,704236,001,2025-10-04_08h12.23.123,Motor Learning,2024.2.4,143.41667235551566,2025-10-04 08h12.32.724477 +0530,
50,c,186,2,46,c,1,0.35980110010132194,None,46,2,186,2,,,,,441.00663949991576,,441.0020383000374,441.00663949991576,441.99257909995504,441.99257909995504,441.99257909995504,441.99257909995504,441.9994328999892,442.99257060000673,442.99257060000673,443.35480470000766,c,1,0.35980110010132194,None,,,,,704236,001,2025-10-04_08h12.23.123,Motor Learning,2024.2.4,143.41667235551566,2025-10-04 08h12.32.724477 +0530,
-150,z,187,3,46,z,1,0.6131673001218587,None,46,3,187,3,,,,,443.3603805999737,,443.3551535999868,443.3603805999737,444.346291200025,444.346291200025,444.346291200025,444.346291200025,444.3532823000569,445.3462131000124,445.3462131000124,445.9654407999478,z,1,0.6131673001218587,None,,,,,704236,001,2025-10-04_08h12.23.123,Motor Learning,2024.2.4,143.41667235551566,2025-10-04 08h12.32.724477 +0530,
-50,x,188,0,47,x,1,0.30747690005227923,None,47,0,188,0,,,,,445.97088179993443,,445.9657713000197,445.97088179993443,446.9570281000342,446.9570281000342,446.9570281000342,446.9570281000342,446.96394759998657,447.95690219989046,447.95690219989046,448.2701727999374,x,1,0.30747690005227923,None,,,,,704236,001,2025-10-04_08h12.23.123,Motor Learning,2024.2.4,143.41667235551566,2025-10-04 08h12.32.724477 +0530,
150,v,189,1,47,v,1,0.31513259978964925,None,47,1,189,1,,,,,448.2761235998478,,448.2704815999605,448.2761235998478,449.2621073999908,449.2621073999908,449.2621073999908,449.2621073999908,449.2692696999293,450.26215870003216,450.26215870003216,450.58270299993455,v,1,0.31513259978964925,None,,,,,704236,001,2025-10-04_08h12.23.123,Motor Learning,2024.2.4,143.41667235551566,2025-10-04 08h12.32.724477 +0530,
50,c,190,2,47,c,1,0.627622100058943,None,47,2,190,2,,,,,450.5884340000339,,450.58289549988694,450.5884340000339,451.57444029999897,451.57444029999897,451.57444029999897,451.57444029999897,451.58127179997973,452.5740020000376,452.5740020000376,453.2071926998906,c,1,0.627622100058943,None,,,,,704236,001,2025-10-04_08h12.23.123,Motor Learning,2024.2.4,143.41667235551566,2025-10-04 08h12.32.724477 +0530,
-150,z,191,3,47,z,1,0.29917750018648803,None,47,3,191,3,,,,,453.212789400015,,453.2075574998744,453.212789400015,454.1989161998499,454.1989161998499,454.1989161998499,454.1989161998499,454.20583599992096,455.19892630004324,455.19892630004324,455.5051444999408,z,1,0.29917750018648803,None,,,,,704236,001,2025-10-04_08h12.23.123,Motor Learning,2024.2.4,143.41667235551566,2025-10-04 08h12.32.724477 +0530,
-50,x,192,0,48,x,1,0.3230697999242693,None,48,0,192,0,,,,,455.51111439988017,,455.5054327000398,455.51111439988017,456.49735559988767,456.49735559988767,456.49735559988767,456.49735559988767,456.5041403998621,457.49724519997835,457.49724519997835,457.8248727999162,x,1,0.3230697999242693,None,,,,,704236,001,2025-10-04_08h12.23.123,Motor Learning,2024.2.4,143.41667235551566,2025-10-04 08h12.32.724477 +0530,
150,v,193,1,48,v,1,0.19709230004809797,None,48,1,193,1,,,,,457.8304601998534,,457.82517770002596,457.8304601998534,458.8165740999393,458.8165740999393,458.8165740999393,458.8165740999393,458.82343459990807,459.81629280000925,459.81629280000925,460.0189455000218,v,1,0.19709230004809797,None,,,,,704236,001,2025-10-04_08h12.23.123,Motor Learning,2024.2.4,143.41667235551566,2025-10-04 08h12.32.724477 +0530,
50,c,194,2,48,c,1,0.26314450008794665,None,48,2,194,2,,,,,460.0245079998858,,460.01927959988825,460.0245079998858,461.01060039992444,461.01060039992444,461.01060039992444,461.01060039992444,461.01757330005057,462.01041539991274,462.01041539991274,462.27615939988755,c,1,0.26314450008794665,None,,,,,704236,001,2025-10-04_08h12.23.123,Motor Learning,2024.2.4,143.41667235551566,2025-10-04 08h12.32.724477 +0530,
-150,z,195,3,48,z,1,0.4296335999388248,None,48,3,195,3,,,,,462.28111149999313,,462.27654069988057,462.28111149999313,463.2672935000155,463.2672935000155,463.2672935000155,463.2672935000155,463.2742818999104,464.26721289986745,464.26721289986745,464.6992178999353,z,1,0.4296335999388248,None,,,,,704236,001,2025-10-04_08h12.23.123,Motor Learning,2024.2.4,143.41667235551566,2025-10-04 08h12.32.724477 +0530,
-50,x,196,0,49,x,1,0.3324019000865519,None,49,0,196,0,,,,,464.70438999985345,,464.6995755999815,464.70438999985345,465.69103049999103,465.69103049999103,465.69103049999103,465.69103049999103,465.69744349992834,466.6902868000325,466.6902868000325,467.0250454999041,x,1,0.3324019000865519,None,,,,,704236,001,2025-10-04_08h12.23.123,Motor Learning,2024.2.4,143.41667235551566,2025-10-04 08h12.32.724477 +0530,
150,v,197,1,49,v,1,0.27777089993469417,None,49,1,197,1,,,,,467.0303272998426,,467.0254136000294,467.0303272998426,468.016557399882,468.016557399882,468.016557399882,468.016557399882,468.02356030000374,469.01631119986996,469.01631119986996,469.2968733999878,v,1,0.27777089993469417,None,,,,,704236,001,2025-10-04_08h12.23.123,Motor Learning,2024.2.4,143.41667235551566,2025-10-04 08h12.32.724477 +0530,
50,c,198,2,49,c,1,0.2568172998726368,None,49,2,198,2,,,,,469.30111750005744,,469.29718800005503,469.30111750005744,470.28716770000756,470.28716770000756,470.28716770000756,470.28716770000756,470.29392309999093,471.28681549988687,471.28681549988687,471.54545289999805,c,1,0.2568172998726368,None,,,,,704236,001,2025-10-04_08h12.23.123,Motor Learning,2024.2.4,143.41667235551566,2025-10-04 08h12.32.724477 +0530,
-150,z,199,3,49,z,1,0.2594453999772668,None,49,3,199,3,,,,,471.55055799987167,,471.54586109984666,471.55055799987167,472.5368125999812,472.5368125999812,472.5368125999812,472.5368125999812,472.54370539984666,473.53662539995275,473.53662539995275,473.8021783998702,z,1,0.2594453999772668,None,,,,,704236,001,2025-10-04_08h12.23.123,Motor Learning,2024.2.4,143.41667235551566,2025-10-04 08h12.32.724477 +0530,
50,c,0,0,0,c,1,0.6456361999735236,None,,,,,0,0,0,2,473.83423749986105,,473.83000449999236,473.83423749986105,474.79333779984154,474.79333779984154,474.79333779984154,474.79333779984154,474.82800629991107,475.7928420000244,475.7928420000244,476.43991009984165,,,,,c,1,0.6456361999735236,None,704236,001,2025-10-04_08h12.23.123,Motor Learning,2024.2.4,143.41667235551566,2025-10-04 08h12.32.724477 +0530,
150,v,1,1,0,v,1,0.4683229001238942,None,,,,,0,1,1,1,476.4456309999805,,476.4401014999021,476.4456309999805,477.4318321000319,477.4318321000319,477.4318321000319,477.4318321000319,477.43883850006387,478.43168489984237,478.43168489984237,478.90509749995545,,,,,v,1,0.4683229001238942,None,704236,001,2025-10-04_08h12.23.123,Motor Learning,2024.2.4,143.41667235551566,2025-10-04 08h12.32.724477 +0530,
150,v,2,2,1,v,1,0.5480561999138445,None,,,,,1,2,2,1,478.91075919987634,,478.9055661999155,478.91075919987634,479.8970216999296,479.8970216999296,479.8970216999296,479.8970216999296,479.9038193000015,480.8965294000227,480.8965294000227,481.4479900000151,,,,,v,1,0.5480561999138445,None,704236,001,2025-10-04_08h12.23.123,Motor Learning,2024.2.4,143.41667235551566,2025-10-04 08h12.32.724477 +0530,
-50,x,3,3,0,x,1,0.5665033000987023,None,,,,,0,3,3,0,481.4530096000526,,481.4483371998649,481.4530096000526,482.4381104998756,482.4381104998756,482.4381104998756,482.4381104998756,482.4450808998663,483.4378096999135,483.4378096999135,484.007620499935,,,,,x,1,0.5665033000987023,None,704236,001,2025-10-04_08h12.23.123,Motor Learning,2024.2.4,143.41667235551566,2025-10-04 08h12.32.724477 +0530,
-150,z,4,4,0,z,1,0.4718464999459684,None,,,,,0,4,4,3,484.0145874998998,,484.00786149990745,484.0145874998998,485.00011339993216,485.00011339993216,485.00011339993216,485.00011339993216,485.007146500051,485.9999553998932,485.9999553998932,486.4735981998965,,,,,z,1,0.4718464999459684,None,704236,001,2025-10-04_08h12.23.123,Motor Learning,2024.2.4,143.41667235551566,2025-10-04 08h12.32.724477 +0530,
50,c,5,5,1,c,1,0.3865519999526441,None,,,,,1,5,5,2,486.47906319983304,,486.47394199995324,486.47906319983304,487.4651107999962,487.4651107999962,487.4651107999962,487.4651107999962,487.4720397000201,488.4649277999997,488.4649277999997,488.8549512999598,,,,,c,1,0.3865519999526441,None,704236,001,2025-10-04_08h12.23.123,Motor Learning,2024.2.4,143.41667235551566,2025-10-04 08h12.32.724477 +0530,
-50,x,6,6,1,x,1,0.4817171997856349,None,,,,,1,6,6,0,488.86064479989,,488.85528520005755,488.86064479989,489.8466415000148,489.8466415000148,489.8466415000148,489.8466415000148,489.8534943999257,490.8465380000416,490.8465380000416,491.3335196999833,,,,,x,1,0.4817171997856349,None,704236,001,2025-10-04_08h12.23.123,Motor Learning,2024.2.4,143.41667235551566,2025-10-04 08h12.32.724477 +0530,
150,v,7,7,2,v,1,0.7729772999882698,None,,,,,2,7,7,1,491.33952709985897,,491.33372889994644,491.33952709985897,492.3259639998432,492.3259639998432,492.3259639998432,492.3259639998432,492.3326942999847,493.3253202000633,493.3253202000633,494.10393229988404,,,,,v,1,0.7729772999882698,None,704236,001,2025-10-04_08h12.23.123,Motor Learning,2024.2.4,143.41667235551566,2025-10-04 08h12.32.724477 +0530,
-50,x,8,8,2,x,1,0.5908079999499023,None,,,,,2,8,8,0,494.1098229000345,,494.104147200007,494.1098229000345,495.0960223998409,495.0960223998409,495.0960223998409,495.0960223998409,495.10305879986845,496.0958966000471,496.0958966000471,496.6940855998546,,,,,x,1,0.5908079999499023,None,704236,001,2025-10-04_08h12.23.123,Motor Learning,2024.2.4,143.41667235551566,2025-10-04 08h12.32.724477 +0530,
-50,x,9,9,3,x,1,0.589751300169155,None,,,,,3,9,9,0,496.69998080004007,,496.69440110004507,496.69998080004007,497.6856947999913,497.6856947999913,497.6856947999913,497.6856947999913,497.69351519993506,498.68554049986415,498.68554049986415,499.2777700999286,,,,,x,1,0.589751300169155,None,704236,001,2025-10-04_08h12.23.123,Motor Learning,2024.2.4,143.41667235551566,2025-10-04 08h12.32.724477 +0530,
-150,z,10,10,1,z,1,0.4947241998743266,None,,,,,1,10,10,3,499.28274219995365,,499.27810089988634,499.28274219995365,500.2687661999371,500.2687661999371,500.2687661999371,500.2687661999371,500.27594910003245,501.2686191999819,501.2686191999819,501.7696885999758,,,,,z,1,0.4947241998743266,None,704236,001,2025-10-04_08h12.23.123,Motor Learning,2024.2.4,143.41667235551566,2025-10-04 08h12.32.724477 +0530,
-50,x,11,11,4,x,1,0.648892099969089,None,,,,,4,11,11,0,501.77570659993216,,501.76997540006414,501.77570659993216,502.7616717000492,502.7616717000492,502.7616717000492,502.7616717000492,502.76833790005185,503.76138609996997,503.76138609996997,504.4159436998889,,,,,x,1,0.648892099969089,None,704236,001,2025-10-04_08h12.23.123,Motor Learning,2024.2.4,143.41667235551566,2025-10-04 08h12.32.724477 +0530,
50,c,12,12,2,c,1,0.6241735001094639,None,,,,,2,12,12,2,504.42072349996306,,504.41628269990906,504.42072349996306,505.40703019988723,505.40703019988723,505.40703019988723,505.40703019988723,505.41390829999,506.4067732000258,506.4067732000258,507.0335321999155,,,,,c,1,0.6241735001094639,None,704236,001,2025-10-04_08h12.23.123,Motor Learning,2024.2.4,143.41667235551566,2025-10-04 08h12.32.724477 +0530,
150,v,13,13,3,v,1,0.3692460998427123,None,,,,,3,13,13,1,507.03867150004953,,507.03394729993306,507.03867150004953,508.0248285999987,508.0248285999987,508.0248285999987,508.0248285999987,508.03174660005607,509.02446469990537,509.02446469990537,509.4004760000389,,,,,v,1,0.3692460998427123,None,704236,001,2025-10-04_08h12.23.123,Motor Learning,2024.2.4,143.41667235551566,2025-10-04 08h12.32.724477 +0530,
-150,z,14,14,2,z,1,0.32202990003861487,None,,,,,2,14,14,3,509.4063107999973,,509.4008555000182,509.4063107999973,510.39245369983837,510.39245369983837,510.39245369983837,510.39245369983837,510.39945019991137,511.39203440002166,511.39203440002166,511.7196934998501,,,,,z,1,0.32202990003861487,None,704236,001,2025-10-04_08h12.23.123,Motor Learning,2024.2.4,143.41667235551566,2025-10-04 08h12.32.724477 +0530,
50,c,15,15,3,c,1,0.8731672000139952,None,,,,,3,15,15,2,511.72517220000736,,511.72008590004407,511.72517220000736,512.7115869999398,512.7115869999398,512.7115869999398,512.7115869999398,512.7183791999705,513.7112469000276,513.7112469000276,514.5876307999715,,,,,c,1,0.8731672000139952,None,704236,001,2025-10-04_08h12.23.123,Motor Learning,2024.2.4,143.41667235551566,2025-10-04 08h12.32.724477 +0530,
-150,z,16,16,3,z,1,0.8326115000527352,None,,,,,3,16,16,3,514.5930554999504,,514.5880185998976,514.5930554999504,515.5791865999345,515.5791865999345,515.5791865999345,515.5791865999345,515.5860329000279,516.5788616999052,516.5788616999052,517.4139775999356,,,,,z,1,0.8326115000527352,None,704236,001,2025-10-04_08h12.23.123,Motor Learning,2024.2.4,143.41667235551566,2025-10-04 08h12.32.724477 +0530,
50,c,17,17,4,c,1,0.5865486999973655,None,,,,,4,17,17,2,517.4190163998865,,517.414385800017,517.4190163998865,518.4051401999313,518.4051401999313,518.4051401999313,518.4051401999313,518.4118810999207,519.4050229999702,519.4050229999702,519.9965979999397,,,,,c,1,0.5865486999973655,None,704236,001,2025-10-04_08h12.23.123,Motor Learning,2024.2.4,143.41667235551566,2025-10-04 08h12.32.724477 +0530,
150,v,18,18,4,v,1,0.4576574999373406,None,,,,,4,18,18,1,520.0018521999009,,519.9969973999541,520.0018521999009,520.9879276999272,520.9879276999272,520.9879276999272,520.9879276999272,520.9949105000123,521.9878282998689,521.9878282998689,522.4484418998472,,,,,v,1,0.4576574999373406,None,704236,001,2025-10-04_08h12.23.123,Motor Learning,2024.2.4,143.41667235551566,2025-10-04 08h12.32.724477 +0530,
50,c,19,19,5,c,1,0.5893244999460876,None,,,,,5,19,19,2,522.4532009998802,,522.448766999878,522.4532009998802,523.4390271999873,523.4390271999873,523.4390271999873,523.4390271999873,523.44596549985,524.4388764998876,524.4388764998876,525.0306970998645,,,,,c,1,0.5893244999460876,None,704236,001,2025-10-04_08h12.23.123,Motor Learning,2024.2.4,143.41667235551566,2025-10-04 08h12.32.724477 +0530,
150,v,20,20,5,v,1,0.662288699997589,None,,,,,5,20,20,1,525.0361721999943,,525.0310332998633,525.0361721999943,526.0221672998741,526.0221672998741,526.0221672998741,526.0221672998741,526.0291023999453,527.0220079999417,527.0220079999417,527.6892820999492,,,,,v,1,0.662288699997589,None,704236,001,2025-10-04_08h12.23.123,Motor Learning,2024.2.4,143.41667235551566,2025-10-04 08h12.32.724477 +0530,
-50,x,21,21,5,x,1,0.6913239001296461,None,,,,,5,21,21,0,527.6953745998908,,527.689664100064,527.6953745998908,528.6814015998971,528.6814015998971,528.6814015998971,528.6814015998971,528.6883529999759,529.681230599992,529.681230599992,530.3773417000193,,,,,x,1,0.6913239001296461,None,704236,001,2025-10-04_08h12.23.123,Motor Learning,2024.2.4,143.41667235551566,2025-10-04 08h12.32.724477 +0530,
-50,x,22,22,6,x,1,0.6270481999963522,None,,,,,6,22,22,0,530.3824990000576,,530.3777344999835,530.3824990000576,531.3686069999821,531.3686069999821,531.3686069999821,531.3686069999821,531.3753843999002,532.3684507999569,532.3684507999569,533.0014712000266,,,,,x,1,0.6270481999963522,None,704236,001,2025-10-04_08h12.23.123,Motor Learning,2024.2.4,143.41667235551566,2025-10-04 08h12.32.724477 +0530,
50,c,23,23,6,c,1,0.7719260999001563,None,,,,,6,23,23,2,533.007157499902,,533.0017706998624,533.007157499902,533.9932064998429,533.9932064998429,533.9932064998429,533.9932064998429,534.0001638999674,534.9929674998857,534.9929674998857,535.7715640000533,,,,,c,1,0.7719260999001563,None,704236,001,2025-10-04_08h12.23.123,Motor Learning,2024.2.4,143.41667235551566,2025-10-04 08h12.32.724477 +0530,
-50,x,24,24,7,x,1,0.6747985000256449,None,,,,,7,24,24,0,535.7774908998981,,535.7718966999091,535.7774908998981,536.7635748998728,536.7635748998728,536.7635748998728,536.7635748998728,536.7705755999777,537.7634045998566,537.7634045998566,538.4462947000284,,,,,x,1,0.6747985000256449,None,704236,001,2025-10-04_08h12.23.123,Motor Learning,2024.2.4,143.41667235551566,2025-10-04 08h12.32.724477 +0530,
-150,z,25,25,4,z,1,0.5572440000250936,None,,,,,4,25,25,3,538.4508106999565,,538.4466083999723,538.4508106999565,539.4368608999066,539.4368608999066,539.4368608999066,539.4368608999066,539.4438134999946,540.4366407999769,540.4366407999769,541.0005931998603,,,,,z,1,0.5572440000250936,None,704236,001,2025-10-04_08h12.23.123,Motor Learning,2024.2.4,143.41667235551566,2025-10-04 08h12.32.724477 +0530,
50,c,26,26,7,c,1,0.8816649001091719,None,,,,,7,26,26,2,541.0060924999416,,541.000893499935,541.0060924999416,541.9920604999643,541.9920604999643,541.9920604999643,541.9920604999643,541.9989928998984,542.991893999977,542.991893999977,543.8765097998548,,,,,c,1,0.8816649001091719,None,704236,001,2025-10-04_08h12.23.123,Motor Learning,2024.2.4,143.41667235551566,2025-10-04 08h12.32.724477 +0530,
-150,z,27,27,5,z,1,0.543351799948141,None,,,,,5,27,27,3,543.8805509998929,,543.8768372000195,543.8805509998929,544.8665859999601,544.8665859999601,544.8665859999601,544.8665859999601,544.8736018000636,545.8665191999171,545.8665191999171,546.4163295000326,,,,,z,1,0.543351799948141,None,704236,001,2025-10-04_08h12.23.123,Motor Learning,2024.2.4,143.41667235551566,2025-10-04 08h12.32.724477 +0530,
50,c,28,28,8,c,1,0.7838328999932855,None,,,,,8,28,28,2,546.4217375998851,,546.4167636998463,546.4217375998851,547.4079014998861,547.4079014998861,547.4079014998861,547.4079014998861,547.4149523999076,548.4076024999376,548.4076024999376,549.1942197999451,,,,,c,1,0.7838328999932855,None,704236,001,2025-10-04_08h12.23.123,Motor Learning,2024.2.4,143.41667235551566,2025-10-04 08h12.32.724477 +0530,
150,v,29,29,6,v,1,0.48081200011074543,None,,,,,6,29,29,1,549.1993350998964,,549.1945580998436,549.1993350998964,550.1850999000017,550.1850999000017,550.1850999000017,550.1850999000017,550.1919962998945,551.1851202000398,551.1851202000398,551.6727064999286,,,,,v,1,0.48081200011074543,None,704236,001,2025-10-04_08h12.23.123,Motor Learning,2024.2.4,143.41667235551566,2025-10-04 08h12.32.724477 +0530,
150,v,30,30,7,v,1,0.7215882998425514,None,,,,,7,30,30,1,551.6779417998623,,551.673096699873,551.6779417998623,552.6640194000211,552.6640194000211,552.6640194000211,552.6640194000211,552.6709728999995,553.6639403000008,553.6639403000008,554.388133399887,,,,,v,1,0.7215882998425514,None,704236,001,2025-10-04_08h12.23.123,Motor Learning,2024.2.4,143.41667235551566,2025-10-04 08h12.32.724477 +0530,
-50,x,31,31,8,x,1,0.5558207000140101,None,,,,,8,31,31,0,554.3928414999973,,554.388493699953,554.3928414999973,555.3789466000162,555.3789466000162,555.3789466000162,555.3789466000162,555.385789899854,556.3787922000047,556.3787922000047,556.9362311000004,,,,,x,1,0.5558207000140101,None,704236,001,2025-10-04_08h12.23.123,Motor Learning,2024.2.4,143.41667235551566,2025-10-04 08h12.32.724477 +0530,
-50,x,32,32,9,x,1,0.5157678001560271,None,,,,,9,32,32,0,556.9412352999207,,556.9366623999085,556.9412352999207,557.9271632998716,557.9271632998716,557.9271632998716,557.9271632998716,557.9341859000269,558.9269800998736,558.9269800998736,559.4492120000068,,,,,x,1,0.5157678001560271,None,704236,001,2025-10-04_08h12.23.123,Motor Learning,2024.2.4,143.41667235551566,2025-10-04 08h12.32.724477 +0530,
-150,z,33,33,6,z,1,0.4622899000532925,None,,,,,6,33,33,3,559.4547458998859,,559.4496122000273,559.4547458998859,560.4406673999038,560.4406673999038,560.4406673999038,560.4406673999038,560.4472747999243,561.4405833999626,561.4405833999626,561.906720199855,,,,,z,1,0.4622899000532925,None,704236,001,2025-10-04_08h12.23.123,Motor Learning,2024.2.4,143.41667235551566,2025-10-04 08h12.32.724477 +0530,
150,v,34,34,8,v,1,0.6747541001532227,None,,,,,8,34,34,1,561.9127469998784,,561.9070325000212,561.9127469998784,562.8989840999711,562.8989840999711,562.8989840999711,562.8989840999711,562.9056235000025,563.8985432998743,563.8985432998743,564.5796715999022,,,,,v,1,0.6747541001532227,None,704236,001,2025-10-04_08h12.23.123,Motor Learning,2024.2.4,143.41667235551566,2025-10-04 08h12.32.724477 +0530,
150,v,35,35,9,v,1,0.6401835998985916,None,,,,,9,35,35,1,564.58585579996,,564.5799534998368,564.58585579996,565.5717386999168,565.5717386999168,565.5717386999168,565.5717386999168,565.578756300034,566.571699099848,566.571699099848,567.2186161999125,,,,,v,1,0.6401835998985916,None,704236,001,2025-10-04_08h12.23.123,Motor Learning,2024.2.4,143.41667235551566,2025-10-04 08h12.32.724477 +0530,
-150,z,36,36,7,z,1,0.5070871999487281,None,,,,,7,36,36,3,567.2244676998816,,567.2189295999706,567.2244676998816,568.210230199853,568.210230199853,568.210230199853,568.210230199853,568.2172725999262,569.2101860998664,569.2101860998664,569.7185565999243,,,,,z,1,0.5070871999487281,None,704236,001,2025-10-04_08h12.23.123,Motor Learning,2024.2.4,143.41667235551566,2025-10-04 08h12.32.724477 +0530,
50,c,37,37,9,c,1,0.6745813000015914,None,,,,,9,37,37,2,569.7240104998928,,569.7189585999586,569.7240104998928,570.7097722999752,570.7097722999752,570.7097722999752,570.7097722999752,570.7166424999014,571.7098566999193,571.7098566999193,572.3914401999209,,,,,c,1,0.6745813000015914,None,704236,001,2025-10-04_08h12.23.123,Motor Learning,2024.2.4,143.41667235551566,2025-10-04 08h12.32.724477 +0530,
-50,x,38,38,10,x,1,0.5767700001597404,None,,,,,10,38,38,0,572.397204299923,,572.391728800023,572.397204299923,573.3832634999417,573.3832634999417,573.3832634999417,573.3832634999417,573.3901835998986,574.3830253998749,574.3830253998749,574.9664574998897,,,,,x,1,0.5767700001597404,None,704236,001,2025-10-04_08h12.23.123,Motor Learning,2024.2.4,143.41667235551566,2025-10-04 08h12.32.724477 +0530,
-50,x,39,39,11,x,1,0.5957070998847485,None,,,,,11,39,39,0,574.9729452000465,,574.9666650998406,574.9729452000465,575.9592321000528,575.9592321000528,575.9592321000528,575.9592321000528,575.9661109999288,576.9591194000095,576.9591194000095,577.5577417998575,,,,,x,1,0.5957070998847485,None,704236,001,2025-10-04_08h12.23.123,Motor Learning,2024.2.4,143.41667235551566,2025-10-04 08h12.32.724477 +0530,
150,v,40,40,10,v,1,0.5031370997894555,None,,,,,10,40,40,1,577.5631593998987,,577.5580728000496,577.5631593998987,578.549049800029,578.549049800029,578.549049800029,578.549049800029,578.5560925998725,579.5489180998411,579.5489180998411,580.0572567000054,,,,,v,1,0.5031370997894555,None,704236,001,2025-10-04_08h12.23.123,Motor Learning,2024.2.4,143.41667235551566,2025-10-04 08h12.32.724477 +0530,
150,v,41,41,11,v,1,0.5546887000091374,None,,,,,11,41,41,1,580.0628426999319,,580.057634399971,580.0628426999319,581.0487603000365,581.0487603000365,581.0487603000365,581.0487603000365,581.0558032998815,582.0488557000645,582.0488557000645,582.6059693000279,,,,,v,1,0.5546887000091374,None,704236,001,2025-10-04_08h12.23.123,Motor Learning,2024.2.4,143.41667235551566,2025-10-04 08h12.32.724477 +0530,
150,v,42,42,12,v,1,0.5558626998681575,None,,,,,12,42,42,1,582.6108087999746,,582.6063460998703,582.6108087999746,583.5970980999991,583.5970980999991,583.5970980999991,583.5970980999991,583.6040511999745,584.5967420998495,584.5967420998495,585.1551244000439,,,,,v,1,0.5558626998681575,None,704236,001,2025-10-04_08h12.23.123,Motor Learning,2024.2.4,143.41667235551566,2025-10-04 08h12.32.724477 +0530,
50,c,43,43,10,c,1,0.46339969988912344,None,,,,,10,43,43,2,585.159132800065,,585.1554914999288,585.159132800065,586.1453801998869,586.1453801998869,586.1453801998869,586.1453801998869,586.1522925000172,587.145028400002,587.145028400002,587.6117897999939,,,,,c,1,0.46339969988912344,None,704236,001,2025-10-04_08h12.23.123,Motor Learning,2024.2.4,143.41667235551566,2025-10-04 08h12.32.724477 +0530,
150,v,44,44,13,v,1,0.5110917000565678,None,,,,,13,44,44,1,587.6173957998399,,587.6121006999165,587.6173957998399,588.6032549999654,588.6032549999654,588.6032549999654,588.6032549999654,588.6100777999964,589.6031956998631,589.6031956998631,590.117833700031,,,,,v,1,0.5110917000565678,None,704236,001,2025-10-04_08h12.23.123,Motor Learning,2024.2.4,143.41667235551566,2025-10-04 08h12.32.724477 +0530,
