study_word,thisN,thisTrialN,thisRepN,Studyslider.response,Studyslider.rt,test_word,Reference,old_new,textbox.text,testmouse.x,testmouse.y,testmouse.leftButton,testmouse.midButton,testmouse.rightButton,testmouse.time,testmouse.clicked_name,trials.thisRepN,trials.thisTrialN,trials.thisN,trials.thisIndex,trials_2.thisRepN,trials_2.thisTrialN,trials_2.thisN,trials_2.thisIndex,thisRow.t,notes,trial.started,StudyText.started,Studyslider.started,trial.stopped,trials.Studyslider.response,trials.Studyslider.rt,Test.started,TestText.started,textbox.started,submit_text.started,testmouse.started,Test.stopped,trials_2.textbox.text,trials_2.testmouse.x,trials_2.testmouse.y,trials_2.testmouse.leftButton,trials_2.testmouse.midButton,trials_2.testmouse.rightButton,trials_2.testmouse.time,trials_2.testmouse.clicked_name,participant,session,date,expName,psychopyVersion,frameRate,expStart
phone,0,0,0,1,2.0217191,,,,,,,,,,,,0,0,0,2,,,,,0.0291041,,0.0164469,0.0291041,0.0291041,2.0446479,1,2.0217191,,,,,,,,,,,,,,,7439,1,2025-10-22_21h45.26.549,Word Priming,2024.2.4,144.755927,2025-10-22 21h45.31.137995 +0530
Cruise,1,1,0,1,0.6089596,,,,,,,,,,,,0,1,1,11,,,,,2.0580264,,2.0473409,2.0580264,2.0580264,2.6630969,1,0.6089596,,,,,,,,,,,,,,,7439,1,2025-10-22_21h45.26.549,Word Priming,2024.2.4,144.755927,2025-10-22 21h45.31.137995 +0530
Chart,2,2,0,1,0.5806991,,,,,,,,,,,,0,2,2,6,,,,,2.6751697,,2.6657103,2.6751697,2.6751697,3.2526576,1,0.5806991,,,,,,,,,,,,,,,7439,1,2025-10-22_21h45.26.549,Word Priming,2024.2.4,144.755927,2025-10-22 21h45.31.137995 +0530
Keys ,3,3,0,1,0.5109732,,,,,,,,,,,,0,3,3,13,,,,,3.2652269,,3.2559768,3.2652269,3.2652269,3.7740065,1,0.5109732,,,,,,,,,,,,,,,7439,1,2025-10-22_21h45.26.549,Word Priming,2024.2.4,144.755927,2025-10-22 21h45.31.137995 +0530
Pastry,4,4,0,1,0.4965597,,,,,,,,,,,,0,4,4,9,,,,,3.7863845,,3.7766301,3.7863845,3.7863845,4.2804433,1,0.4965597,,,,,,,,,,,,,,,7439,1,2025-10-22_21h45.26.549,Word Priming,2024.2.4,144.755927,2025-10-22 21h45.31.137995 +0530
mouse,5,5,0,1,0.5124504,,,,,,,,,,,,0,5,5,8,,,,,4.2927423,,4.2819115,4.2927423,4.2927423,4.8009616,1,0.5124504,,,,,,,,,,,,,,,7439,1,2025-10-22_21h45.26.549,Word Priming,2024.2.4,144.755927,2025-10-22 21h45.31.137995 +0530
T-shirt,6,6,0,1,0.677508,,,,,,,,,,,,0,6,6,7,,,,,4.8135869,,4.8042134,4.8135869,4.8135869,5.4883764,1,0.677508,,,,,,,,,,,,,,,7439,1,2025-10-22_21h45.26.549,Word Priming,2024.2.4,144.755927,2025-10-22 21h45.31.137995 +0530
Case,7,7,0,1,0.4848539,,,,,,,,,,,,0,7,7,10,,,,,5.5016762,,5.4897608,5.5016762,5.5016762,5.9814099,1,0.4848539,,,,,,,,,,,,,,,7439,1,2025-10-22_21h45.26.549,Word Priming,2024.2.4,144.755927,2025-10-22 21h45.31.137995 +0530
Laptop,8,8,0,1,0.4976531,,,,,,,,,,,,0,8,8,5,,,,,5.9940735,,5.9842296,5.9940735,5.9940735,6.488625,1,0.4976531,,,,,,,,,,,,,,,7439,1,2025-10-22_21h45.26.549,Word Priming,2024.2.4,144.755927,2025-10-22 21h45.31.137995 +0530
Police,9,9,0,1,0.4845644,,,,,,,,,,,,0,9,9,12,,,,,6.5014487,,6.4900652,6.5014487,6.5014487,6.9815507,1,0.4845644,,,,,,,,,,,,,,,7439,1,2025-10-22_21h45.26.549,Word Priming,2024.2.4,144.755927,2025-10-22 21h45.31.137995 +0530
cushion,10,10,0,1,0.4935044,,,,,,,,,,,,0,10,10,1,,,,,6.9939845,,6.9830217,6.9939845,6.9939845,7.4884081,1,0.4935044,,,,,,,,,,,,,,,7439,1,2025-10-22_21h45.26.549,Word Priming,2024.2.4,144.755927,2025-10-22 21h45.31.137995 +0530
Poster,11,11,0,1,0.6027495,,,,,,,,,,,,0,11,11,14,,,,,7.501255,,7.4900609,7.501255,7.501255,8.1004059,1,0.6027495,,,,,,,,,,,,,,,7439,1,2025-10-22_21h45.26.549,Word Priming,2024.2.4,144.755927,2025-10-22 21h45.31.137995 +0530
book,12,12,0,1,0.4281888,,,,,,,,,,,,0,12,12,0,,,,,8.1119512,,8.1019132,8.1119512,8.1119512,8.5366844,1,0.4281888,,,,,,,,,,,,,,,7439,1,2025-10-22_21h45.26.549,Word Priming,2024.2.4,144.755927,2025-10-22 21h45.31.137995 +0530
marble,13,13,0,1,0.4915734,,,,,,,,,,,,0,13,13,3,,,,,8.5494261,,8.5383894,8.5494261,8.5494261,9.0364563,1,0.4915734,,,,,,,,,,,,,,,7439,1,2025-10-22_21h45.26.549,Word Priming,2024.2.4,144.755927,2025-10-22 21h45.31.137995 +0530
board,14,14,0,1,0.4778392,,,,,,,,,,,,0,14,14,4,,,,,9.0491487,,9.0389271,9.0491487,9.0491487,9.5227805,1,0.4778392,,,,,,,,,,,,,,,7439,1,2025-10-22_21h45.26.549,Word Priming,2024.2.4,144.755927,2025-10-22 21h45.31.137995 +0530
,0,0,0,,,ta_l_,Table,new,table,[-0.04833333333333333],[-0.29],[1],[0],[0],[6.054279000032693],['submit_text'],,,,,0,0,0,15,9.5424971,,,,,,,,9.5297668,9.5424971,9.5424971,9.5424971,0.0069771,15.5844635,table,[-0.04833333333333333],[-0.29],[1],[0],[0],[6.054279000032693],['submit_text'],7439,1,2025-10-22_21h45.26.549,Word Priming,2024.2.4,144.755927,2025-10-22 21h45.31.137995 +0530
,1,1,0,,,_ha_t,Chart,old,chart,"[0.04, -0.035]","[-0.02, -0.2966666666666667]","[1, 1]","[0, 0]","[0, 0]","[1.9506171999964863, 5.37914949998958]","[None, 'submit_text']",,,,,0,1,1,1,15.5969756,,,,,,,,15.5861806,15.5969756,15.5969756,15.5969756,0.0016296,20.9659443,chart,"[0.04, -0.035]","[-0.02, -0.2966666666666667]","[1, 1]","[0, 0]","[0, 0]","[1.9506171999964863, 5.37914949998958]","[None, 'submit_text']",7439,1,2025-10-22_21h45.26.549,Word Priming,2024.2.4,144.755927,2025-10-22 21h45.31.137995 +0530
,2,2,0,,,_oo_,Book,old,hoot,[-0.016666666666666666],[-0.3016666666666667],[1],[0],[0],[4.921448500012048],['submit_text'],,,,,0,2,2,13,20.9787727,,,,,,,,20.9673525,20.9787727,20.9787727,20.9787727,0.0013302,25.8892179,hoot,[-0.016666666666666666],[-0.3016666666666667],[1],[0],[0],[4.921448500012048],['submit_text'],7439,1,2025-10-22_21h45.26.549,Word Priming,2024.2.4,144.755927,2025-10-22 21h45.31.137995 +0530
,3,3,0,,,P_s_r_,Pastry,old,pastry,[-0.016666666666666666],[-0.3016666666666667],[1],[0],[0],[9.48179250000976],['submit_text'],,,,,0,3,3,4,25.9010802,,,,,,,,25.8908139,25.9010802,25.9010802,25.9010802,0.0015288,35.3730875,pastry,[-0.016666666666666666],[-0.3016666666666667],[1],[0],[0],[9.48179250000976],['submit_text'],7439,1,2025-10-22_21h45.26.549,Word Priming,2024.2.4,144.755927,2025-10-22 21h45.31.137995 +0530
,4,4,0,,,_ru_s_,Cruise,old,brussel,[-0.016666666666666666],[-0.3016666666666667],[1],[0],[0],[4.830780500022229],['submit_text'],,,,,0,4,4,6,35.3861625,,,,,,,,35.3746171,35.3861625,35.3861625,35.3861625,0.0014573,40.2057487,brussel,[-0.016666666666666666],[-0.3016666666666667],[1],[0],[0],[4.830780500022229],['submit_text'],7439,1,2025-10-22_21h45.26.549,Word Priming,2024.2.4,144.755927,2025-10-22 21h45.31.137995 +0530
,5,5,0,,,P_li_e,Police,old,police,[-0.016666666666666666],[-0.3016666666666667],[1],[0],[0],[10.045480699976906],['submit_text'],,,,,0,5,5,7,40.2177806,,,,,,,,40.2074261,40.2177806,40.2177806,40.2177806,0.0016092,50.2532963,police,[-0.016666666666666666],[-0.3016666666666667],[1],[0],[0],[10.045480699976906],['submit_text'],7439,1,2025-10-22_21h45.26.549,Word Priming,2024.2.4,144.755927,2025-10-22 21h45.31.137995 +0530
,6,6,0,,,_ou_e,mouse,old,house,[-0.016666666666666666],[-0.3016666666666667],[1],[0],[0],[3.802659399982076],['submit_text'],,,,,0,6,6,3,50.2656974,,,,,,,,50.2549354,50.2656974,50.2656974,50.2656974,0.0015712,54.0580183,house,[-0.016666666666666666],[-0.3016666666666667],[1],[0],[0],[3.802659399982076],['submit_text'],7439,1,2025-10-22_21h45.26.549,Word Priming,2024.2.4,144.755927,2025-10-22 21h45.31.137995 +0530
,7,7,0,,,_o_rd,Board,old,chord,[-0.016666666666666666],[-0.3016666666666667],[1],[0],[0],[3.4765340000158176],['submit_text'],,,,,0,7,7,10,54.0704532,,,,,,,,54.0595869,54.0704532,54.0704532,54.0704532,0.0014919,57.5365032,chord,[-0.016666666666666666],[-0.3016666666666667],[1],[0],[0],[3.4765340000158176],['submit_text'],7439,1,2025-10-22_21h45.26.549,Word Priming,2024.2.4,144.755927,2025-10-22 21h45.31.137995 +0530
,8,8,0,,,c_s_io_,Cushion,old,casino,[-0.016666666666666666],[-0.3016666666666667],[1],[0],[0],[7.080644200032111],['submit_text'],,,,,0,8,8,14,57.5493014,,,,,,,,57.5379969,57.5493014,57.5493014,57.5493014,0.0014256,64.61909,casino,[-0.016666666666666666],[-0.3016666666666667],[1],[0],[0],[7.080644200032111],['submit_text'],7439,1,2025-10-22_21h45.26.549,Word Priming,2024.2.4,144.755927,2025-10-22 21h45.31.137995 +0530
,9,9,0,,,c_m_ra,Camera,new,camera,[-0.016666666666666666],[-0.3016666666666667],[1],[0],[0],[2.754248400044162],['submit_text'],,,,,0,9,9,19,64.6320355,,,,,,,,64.6209696,64.6320355,64.6320355,64.6320355,0.0017921,67.3755806,camera,[-0.016666666666666666],[-0.3016666666666667],[1],[0],[0],[2.754248400044162],['submit_text'],7439,1,2025-10-22_21h45.26.549,Word Priming,2024.2.4,144.755927,2025-10-22 21h45.31.137995 +0530
,10,10,0,,,T_hi_t,Tshirt,old,tshirt,[-0.016666666666666666],[-0.3016666666666667],[1],[0],[0],[3.7124188999878243],['submit_text'],,,,,0,10,10,2,67.3883691,,,,,,,,67.3771579,67.3883691,67.3883691,67.3883691,0.0015198,71.0899674,tshirt,[-0.016666666666666666],[-0.3016666666666667],[1],[0],[0],[3.7124188999878243],['submit_text'],7439,1,2025-10-22_21h45.26.549,Word Priming,2024.2.4,144.755927,2025-10-22 21h45.31.137995 +0530
,11,11,0,,,bo_t_e,Bottle,new,bottle,[-0.016666666666666666],[-0.3016666666666667],[1],[0],[0],[3.6173051000223495],['submit_text'],,,,,0,11,11,18,71.1037945,,,,,,,,71.0915792,71.1037945,71.1037945,71.1037945,0.0015396,74.7093566,bottle,[-0.016666666666666666],[-0.3016666666666667],[1],[0],[0],[3.6173051000223495],['submit_text'],7439,1,2025-10-22_21h45.26.549,Word Priming,2024.2.4,144.755927,2025-10-22 21h45.31.137995 +0530
,12,12,0,,,v_s_,Vase,new,vase,[-0.016666666666666666],[-0.3016666666666667],[1],[0],[0],[2.119961099990178],['submit_text'],,,,,0,12,12,17,74.7211845,,,,,,,,74.712471,74.7211845,74.7211845,74.7211845,0.0030284,76.8329022,vase,[-0.016666666666666666],[-0.3016666666666667],[1],[0],[0],[2.119961099990178],['submit_text'],7439,1,2025-10-22_21h45.26.549,Word Priming,2024.2.4,144.755927,2025-10-22 21h45.31.137995 +0530
,13,13,0,,,c_s_,Case,old,case,[-0.016666666666666666],[-0.3016666666666667],[1],[0],[0],[2.198908099962864],['submit_text'],,,,,0,13,13,5,76.8455344,,,,,,,,76.8348772,76.8455344,76.8455344,76.8455344,0.0018662,79.0341658,case,[-0.016666666666666666],[-0.3016666666666667],[1],[0],[0],[2.198908099962864],['submit_text'],7439,1,2025-10-22_21h45.26.549,Word Priming,2024.2.4,144.755927,2025-10-22 21h45.31.137995 +0530
,14,14,0,,,_ho_e,Phone,old,chose,[-0.016666666666666666],[-0.3016666666666667],[1],[0],[0],[3.2400815000291914],['submit_text'],,,,,0,14,14,12,79.0466271,,,,,,,,79.035867,79.0466271,79.0466271,79.0466271,0.0016324,82.2763177,chose,[-0.016666666666666666],[-0.3016666666666667],[1],[0],[0],[3.2400815000291914],['submit_text'],7439,1,2025-10-22_21h45.26.549,Word Priming,2024.2.4,144.755927,2025-10-22 21h45.31.137995 +0530
,15,15,0,,,P_st_r,Poster,old,poster,[-0.016666666666666666],[-0.3016666666666667],[1],[0],[0],[2.8175360999885015],['submit_text'],,,,,0,15,15,9,82.2887597,,,,,,,,82.2779091,82.2887597,82.2887597,82.2887597,0.0015219,85.0959043,poster,[-0.016666666666666666],[-0.3016666666666667],[1],[0],[0],[2.8175360999885015],['submit_text'],7439,1,2025-10-22_21h45.26.549,Word Priming,2024.2.4,144.755927,2025-10-22 21h45.31.137995 +0530
,16,16,0,,,p_nc_l,Pencil,new,pencil,[-0.016666666666666666],[-0.3016666666666667],[1],[0],[0],[3.337460499955341],['submit_text'],,,,,0,16,16,16,85.1082392,,,,,,,,85.0977878,85.1082392,85.1082392,85.1082392,0.0018024,88.4357857,pencil,[-0.016666666666666666],[-0.3016666666666667],[1],[0],[0],[3.337460499955341],['submit_text'],7439,1,2025-10-22_21h45.26.549,Word Priming,2024.2.4,144.755927,2025-10-22 21h45.31.137995 +0530
,17,17,0,,,K_y_,Keys,old,keys,[-0.016666666666666666],[-0.3016666666666667],[1],[0],[0],[2.532082599995192],['submit_text'],,,,,0,17,17,8,88.4485624,,,,,,,,88.4373712,88.4485624,88.4485624,88.4485624,0.0015143,90.9698725,keys,[-0.016666666666666666],[-0.3016666666666667],[1],[0],[0],[2.532082599995192],['submit_text'],7439,1,2025-10-22_21h45.26.549,Word Priming,2024.2.4,144.755927,2025-10-22 21h45.31.137995 +0530
,18,18,0,,,l_pt_p,Laptop,old,laptop,[-0.016666666666666666],[-0.3016666666666667],[1],[0],[0],[2.185175899998285],['submit_text'],,,,,0,18,18,0,90.9821653,,,,,,,,90.9713874,90.9821653,90.9821653,90.9821653,0.0014428,93.1569647,laptop,[-0.016666666666666666],[-0.3016666666666667],[1],[0],[0],[2.185175899998285],['submit_text'],7439,1,2025-10-22_21h45.26.549,Word Priming,2024.2.4,144.755927,2025-10-22 21h45.31.137995 +0530
,19,19,0,,,_a_bl_,Marble,old,marble,[-0.016666666666666666],[-0.3016666666666667],[1],[0],[0],[2.6710573000018485],['submit_text'],,,,,0,19,19,11,93.1698037,,,,,,,,93.1587478,93.1698037,93.1698037,93.1698037,0.0017098,95.8302893,marble,[-0.016666666666666666],[-0.3016666666666667],[1],[0],[0],[2.6710573000018485],['submit_text'],7439,1,2025-10-22_21h45.26.549,Word Priming,2024.2.4,144.755927,2025-10-22 21h45.31.137995 +0530
