study_word,thisN,thisTrialN,thisRepN,Studyslider.response,Studyslider.rt,test_word,Reference,old_new,textbox.text,testmouse.x,testmouse.y,testmouse.leftButton,testmouse.midButton,testmouse.rightButton,testmouse.time,testmouse.clicked_name,trials.thisRepN,trials.thisTrialN,trials.thisN,trials.thisIndex,trials_2.thisRepN,trials_2.thisTrialN,trials_2.thisN,trials_2.thisIndex,thisRow.t,notes,trial.started,StudyText.started,Studyslider.started,StudyText.stopped,trial.stopped,trials.Studyslider.response,trials.Studyslider.rt,Test.started,TestText.started,textbox.started,submit_text.started,testmouse.started,Test.stopped,trials_2.textbox.text,trials_2.testmouse.x,trials_2.testmouse.y,trials_2.testmouse.leftButton,trials_2.testmouse.midButton,trials_2.testmouse.rightButton,trials_2.testmouse.time,trials_2.testmouse.clicked_name,participant,session,date,expName,psychopyVersion,frameRate,expStart
Case,0,0,0,1,9.4429793,,,,,,,,,,,,0,0,0,10,,,,,0.0303739,,0.0109266,0.0303739,0.0303739,8.0226449,9.4605892,1,9.4429793,,,,,,,,,,,,,,,868058,1,2025-10-22_16h08.03.162,Word Priming,2024.2.4,144.8131548,2025-10-22 16h08.25.976501 +0530
phone,1,1,0,1,1.739887,,,,,,,,,,,,0,1,1,2,,,,,9.4733011,,9.4641642,9.4733011,9.4733011,,11.2105617,1,1.739887,,,,,,,,,,,,,,,868058,1,2025-10-22_16h08.03.162,Word Priming,2024.2.4,144.8131548,2025-10-22 16h08.25.976501 +0530
marble,2,2,0,1,1.1152041,,,,,,,,,,,,0,2,2,3,,,,,11.2230916,,11.2137036,11.2230916,11.2230916,,12.3353348,1,1.1152041,,,,,,,,,,,,,,,868058,1,2025-10-22_16h08.03.162,Word Priming,2024.2.4,144.8131548,2025-10-22 16h08.25.976501 +0530
cushion,3,3,0,1,1.1724232,,,,,,,,,,,,0,3,3,1,,,,,12.348229,,12.3371024,12.348229,12.348229,,13.5221956,1,1.1724232,,,,,,,,,,,,,,,868058,1,2025-10-22_16h08.03.162,Word Priming,2024.2.4,144.8131548,2025-10-22 16h08.25.976501 +0530
Laptop,4,4,0,1,1.1284515,,,,,,,,,,,,0,4,4,5,,,,,13.5354398,,13.5255391,13.5354398,13.5354398,,14.660768,1,1.1284515,,,,,,,,,,,,,,,868058,1,2025-10-22_16h08.03.162,Word Priming,2024.2.4,144.8131548,2025-10-22 16h08.25.976501 +0530
book,5,5,0,1,1.8678189,,,,,,,,,,,,0,5,5,0,,,,,14.6732051,,14.6622374,14.6732051,14.6732051,,16.5370197,1,1.8678189,,,,,,,,,,,,,,,868058,1,2025-10-22_16h08.03.162,Word Priming,2024.2.4,144.8131548,2025-10-22 16h08.25.976501 +0530
mouse,6,6,0,1,4.4426833,,,,,,,,,,,,0,6,6,8,,,,,16.5491807,,16.5386787,16.5491807,16.5491807,,20.9938591,1,4.4426833,,,,,,,,,,,,,,,868058,1,2025-10-22_16h08.03.162,Word Priming,2024.2.4,144.8131548,2025-10-22 16h08.25.976501 +0530
Keys ,7,7,0,1,0.9773319,,,,,,,,,,,,0,7,7,13,,,,,21.007535,,20.9971513,21.007535,21.007535,,21.9873123,1,0.9773319,,,,,,,,,,,,,,,868058,1,2025-10-22_16h08.03.162,Word Priming,2024.2.4,144.8131548,2025-10-22 16h08.25.976501 +0530
Police,8,8,0,1,1.059264,,,,,,,,,,,,0,8,8,12,,,,,22.0003126,,21.9911144,22.0003126,22.0003126,,23.0637798,1,1.059264,,,,,,,,,,,,,,,868058,1,2025-10-22_16h08.03.162,Word Priming,2024.2.4,144.8131548,2025-10-22 16h08.25.976501 +0530
Poster,9,9,0,1,0.8367704,,,,,,,,,,,,0,9,9,14,,,,,23.0768343,,23.0666751,23.0768343,23.0768343,,23.910704,1,0.8367704,,,,,,,,,,,,,,,868058,1,2025-10-22_16h08.03.162,Word Priming,2024.2.4,144.8131548,2025-10-22 16h08.25.976501 +0530
Pastry,10,10,0,1,0.921083,,,,,,,,,,,,0,10,10,9,,,,,23.9233673,,23.9127522,23.9233673,23.9233673,,24.840954,1,0.921083,,,,,,,,,,,,,,,868058,1,2025-10-22_16h08.03.162,Word Priming,2024.2.4,144.8131548,2025-10-22 16h08.25.976501 +0530
board,11,11,0,1,0.7957855,,,,,,,,,,,,0,11,11,4,,,,,24.8535365,,24.8440256,24.8535365,24.8535365,,25.6465631,1,0.7957855,,,,,,,,,,,,,,,868058,1,2025-10-22_16h08.03.162,Word Priming,2024.2.4,144.8131548,2025-10-22 16h08.25.976501 +0530
T-shirt,12,12,0,1,0.5940538,,,,,,,,,,,,0,12,12,7,,,,,25.6593848,,25.6496146,25.6593848,25.6593848,,26.2568953,1,0.5940538,,,,,,,,,,,,,,,868058,1,2025-10-22_16h08.03.162,Word Priming,2024.2.4,144.8131548,2025-10-22 16h08.25.976501 +0530
Cruise,13,13,0,1,0.5411042,,,,,,,,,,,,0,13,13,11,,,,,26.2700427,,26.2591622,26.2700427,26.2700427,,26.8136327,1,0.5411042,,,,,,,,,,,,,,,868058,1,2025-10-22_16h08.03.162,Word Priming,2024.2.4,144.8131548,2025-10-22 16h08.25.976501 +0530
Chart,14,14,0,1,0.6494734,,,,,,,,,,,,0,14,14,6,,,,,26.8259379,,26.8161106,26.8259379,26.8259379,,27.4792562,1,0.6494734,,,,,,,,,,,,,,,868058,1,2025-10-22_16h08.03.162,Word Priming,2024.2.4,144.8131548,2025-10-22 16h08.25.976501 +0530
,0,0,0,,,_ou_e,mouse,old,mouse,"[-0.08833333333333333, -0.023333333333333334]","[-0.16166666666666665, -0.3]","[1, 1]","[0, 0]","[0, 0]","[5.496421899995767, 6.752465900033712]","[None, 'submit_text']",,,,,0,0,0,3,27.4991658,,,,,,,,,27.4894389,27.4991658,27.4991658,27.4991658,0.0101468,34.2423172,mouse,"[-0.08833333333333333, -0.023333333333333334]","[-0.16166666666666665, -0.3]","[1, 1]","[0, 0]","[0, 0]","[5.496421899995767, 6.752465900033712]","[None, 'submit_text']",868058,1,2025-10-22_16h08.03.162,Word Priming,2024.2.4,144.8131548,2025-10-22 16h08.25.976501 +0530
,1,1,0,,,v_s_,Vase,new,vase,[-0.023333333333333334],[-0.3],[1],[0],[0],[3.5044509999570437],['submit_text'],,,,,0,1,1,17,34.2547765,,,,,,,,,34.2446717,34.2547765,34.2547765,34.2547765,0.0022568,37.7495835,vase,[-0.023333333333333334],[-0.3],[1],[0],[0],[3.5044509999570437],['submit_text'],868058,1,2025-10-22_16h08.03.162,Word Priming,2024.2.4,144.8131548,2025-10-22 16h08.25.976501 +0530
,2,2,0,,,c_s_,Case,old,case,[-0.023333333333333334],[-0.3],[1],[0],[0],[2.239231299958192],['submit_text'],,,,,0,2,2,5,37.76167,,,,,,,,,37.7518026,37.76167,37.76167,37.76167,0.0021379,39.9915425,case,[-0.023333333333333334],[-0.3],[1],[0],[0],[2.239231299958192],['submit_text'],868058,1,2025-10-22_16h08.03.162,Word Priming,2024.2.4,144.8131548,2025-10-22 16h08.25.976501 +0530
,3,3,0,,,_a_bl_,Marble,old,marble,[-0.023333333333333334],[-0.3],[1],[0],[0],[4.65052129997639],['submit_text'],,,,,0,3,3,11,40.0047448,,,,,,,,,39.9932612,40.0047448,40.0047448,40.0047448,0.0016281,44.6443643,marble,[-0.023333333333333334],[-0.3],[1],[0],[0],[4.65052129997639],['submit_text'],868058,1,2025-10-22_16h08.03.162,Word Priming,2024.2.4,144.8131548,2025-10-22 16h08.25.976501 +0530
,4,4,0,,,P_st_r,Poster,old,poster,[-0.023333333333333334],[-0.3],[1],[0],[0],[2.81682309997268],['submit_text'],,,,,0,4,4,9,44.6565029,,,,,,,,,44.6460079,44.6565029,44.6565029,44.6565029,0.001555,47.4634222,poster,[-0.023333333333333334],[-0.3],[1],[0],[0],[2.81682309997268],['submit_text'],868058,1,2025-10-22_16h08.03.162,Word Priming,2024.2.4,144.8131548,2025-10-22 16h08.25.976501 +0530
,5,5,0,,,_o_rd,Board,old,Board,[-0.023333333333333334],[-0.3],[1],[0],[0],[12.1410933000152],['submit_text'],,,,,0,5,5,10,47.4755834,,,,,,,,,47.4656664,47.4755834,47.4755834,47.4755834,0.0021395,59.607445,Board,[-0.023333333333333334],[-0.3],[1],[0],[0],[12.1410933000152],['submit_text'],868058,1,2025-10-22_16h08.03.162,Word Priming,2024.2.4,144.8131548,2025-10-22 16h08.25.976501 +0530
,6,6,0,,,bo_t_e,Bottle,new,bottle,[-0.023333333333333334],[-0.3],[1],[0],[0],[3.808641000010539],['submit_text'],,,,,0,6,6,18,59.6196678,,,,,,,,,59.6094092,59.6196678,59.6196678,59.6196678,0.0018645,63.4185774,bottle,[-0.023333333333333334],[-0.3],[1],[0],[0],[3.808641000010539],['submit_text'],868058,1,2025-10-22_16h08.03.162,Word Priming,2024.2.4,144.8131548,2025-10-22 16h08.25.976501 +0530
,7,7,0,,,ta_l_,Table,new,Tale,[-0.023333333333333334],[-0.3],[1],[0],[0],[6.656487400003243],['submit_text'],,,,,0,7,7,15,63.4312349,,,,,,,,,63.4203834,63.4312349,63.4312349,63.4312349,0.0017139,70.0773695,Tale,[-0.023333333333333334],[-0.3],[1],[0],[0],[6.656487400003243],['submit_text'],868058,1,2025-10-22_16h08.03.162,Word Priming,2024.2.4,144.8131548,2025-10-22 16h08.25.976501 +0530
,8,8,0,,,c_m_ra,Camera,new,camera,[-0.023333333333333334],[-0.3],[1],[0],[0],[2.907858500024304],['submit_text'],,,,,0,8,8,19,70.0902309,,,,,,,,,70.0792037,70.0902309,70.0902309,70.0902309,0.0017601,72.9876391,camera,[-0.023333333333333334],[-0.3],[1],[0],[0],[2.907858500024304],['submit_text'],868058,1,2025-10-22_16h08.03.162,Word Priming,2024.2.4,144.8131548,2025-10-22 16h08.25.976501 +0530
,9,9,0,,,P_li_e,Police,old,Police,[-0.023333333333333334],[-0.3],[1],[0],[0],[3.9268116999883205],['submit_text'],,,,,0,9,9,7,72.9992461,,,,,,,,,72.9894104,72.9992461,72.9992461,72.9992461,0.0016782,76.9166922,Police,[-0.023333333333333334],[-0.3],[1],[0],[0],[3.9268116999883205],['submit_text'],868058,1,2025-10-22_16h08.03.162,Word Priming,2024.2.4,144.8131548,2025-10-22 16h08.25.976501 +0530
,10,10,0,,,K_y_,Keys,old,Keys,[-0.023333333333333334],[-0.3],[1],[0],[0],[3.511339999968186],['submit_text'],,,,,0,10,10,8,76.9293168,,,,,,,,,76.9189849,76.9293168,76.9293168,76.9293168,0.0021883,80.4308736,Keys,[-0.023333333333333334],[-0.3],[1],[0],[0],[3.511339999968186],['submit_text'],868058,1,2025-10-22_16h08.03.162,Word Priming,2024.2.4,144.8131548,2025-10-22 16h08.25.976501 +0530
,11,11,0,,,_oo_,Book,old,Loose,[-0.023333333333333334],[-0.3],[1],[0],[0],[24.750819400011096],['submit_text'],,,,,0,11,11,13,80.4430823,,,,,,,,,80.4323152,80.4430823,80.4430823,80.4430823,0.0013848,105.1836683,Loose,[-0.023333333333333334],[-0.3],[1],[0],[0],[24.750819400011096],['submit_text'],868058,1,2025-10-22_16h08.03.162,Word Priming,2024.2.4,144.8131548,2025-10-22 16h08.25.976501 +0530
,12,12,0,,,l_pt_p,Laptop,old,laptop,[-0.023333333333333334],[-0.3],[1],[0],[0],[2.608278599975165],['submit_text'],,,,,0,12,12,0,105.196114,,,,,,,,,105.185485,105.196114,105.196114,105.196114,0.0017322,107.7943084,laptop,[-0.023333333333333334],[-0.3],[1],[0],[0],[2.608278599975165],['submit_text'],868058,1,2025-10-22_16h08.03.162,Word Priming,2024.2.4,144.8131548,2025-10-22 16h08.25.976501 +0530
,13,13,0,,,p_nc_l,Pencil,new,pencil,[-0.023333333333333334],[-0.3],[1],[0],[0],[3.255559000011999],['submit_text'],,,,,0,13,13,16,107.8070478,,,,,,,,,107.7959023,107.8070478,107.8070478,107.8070478,0.0015352,111.0525226,pencil,[-0.023333333333333334],[-0.3],[1],[0],[0],[3.255559000011999],['submit_text'],868058,1,2025-10-22_16h08.03.162,Word Priming,2024.2.4,144.8131548,2025-10-22 16h08.25.976501 +0530
,14,14,0,,,_ho_e,Phone,old,shoe,[-0.023333333333333334],[-0.3],[1],[0],[0],[2.544442299986258],['submit_text'],,,,,0,14,14,12,111.0638791,,,,,,,,,111.0543523,111.0638791,111.0638791,111.0638791,0.0017495,113.5998727,shoe,[-0.023333333333333334],[-0.3],[1],[0],[0],[2.544442299986258],['submit_text'],868058,1,2025-10-22_16h08.03.162,Word Priming,2024.2.4,144.8131548,2025-10-22 16h08.25.976501 +0530
,15,15,0,,,c_s_io_,Cushion,old,cushion,[-0.023333333333333334],[-0.3],[1],[0],[0],[11.425823300029151],['submit_text'],,,,,0,15,15,14,113.6119058,,,,,,,,,113.6014676,113.6119058,113.6119058,113.6119058,0.0015251,125.0277831,cushion,[-0.023333333333333334],[-0.3],[1],[0],[0],[11.425823300029151],['submit_text'],868058,1,2025-10-22_16h08.03.162,Word Priming,2024.2.4,144.8131548,2025-10-22 16h08.25.976501 +0530
,16,16,0,,,T_hi_t,Tshirt,old,Tahint,[-0.023333333333333334],[-0.3],[1],[0],[0],[17.27349290001439],['submit_text'],,,,,0,16,16,2,125.0402025,,,,,,,,,125.0293553,125.0402025,125.0402025,125.0402025,0.0014799,142.3035515,Tahint,[-0.023333333333333334],[-0.3],[1],[0],[0],[17.27349290001439],['submit_text'],868058,1,2025-10-22_16h08.03.162,Word Priming,2024.2.4,144.8131548,2025-10-22 16h08.25.976501 +0530
,17,17,0,,,_ru_s_,Cruise,old,Brush,[-0.023333333333333334],[-0.3],[1],[0],[0],[16.108155800029635],['submit_text'],,,,,0,17,17,6,142.3158869,,,,,,,,,142.3053515,142.3158869,142.3158869,142.3158869,0.0017191,158.4141817,Brush,[-0.023333333333333334],[-0.3],[1],[0],[0],[16.108155800029635],['submit_text'],868058,1,2025-10-22_16h08.03.162,Word Priming,2024.2.4,144.8131548,2025-10-22 16h08.25.976501 +0530
,18,18,0,,,_ha_t,Chart,old,,[-0.023333333333333334],[-0.3],[1],[0],[0],[4.285456100013107],['submit_text'],,,,,0,18,18,1,158.4245523,,,,,,,,,158.416747,158.4245523,158.4245523,158.4245523,0.0024863,162.7031442,,[-0.023333333333333334],[-0.3],[1],[0],[0],[4.285456100013107],['submit_text'],868058,1,2025-10-22_16h08.03.162,Word Priming,2024.2.4,144.8131548,2025-10-22 16h08.25.976501 +0530
,19,19,0,,,P_s_r_,Pastry,old,Poster,[-0.023333333333333334],[-0.3],[1],[0],[0],[4.865296600037254],['submit_text'],,,,,0,19,19,4,162.7154716,,,,,,,,,162.7046634,162.7154716,162.7154716,162.7154716,0.0014469,167.570456,Poster,[-0.023333333333333334],[-0.3],[1],[0],[0],[4.865296600037254],['submit_text'],868058,1,2025-10-22_16h08.03.162,Word Priming,2024.2.4,144.8131548,2025-10-22 16h08.25.976501 +0530
